Timestamp,AccelX,AccelY,AccelZ,GyroX,GyroY,GyroZ
407,3.0478,-2.2913,9.1985,0.0229,0.0783,0.0365
414,3.0622,-2.2721,9.2033,0.0226,0.0954,0.0458
422,3.0430,-2.1907,9.2823,0.0104,0.1029,0.0592
431,3.0646,-2.2410,9.4164,0.0048,0.0941,0.0690
439,3.1388,-2.1452,9.4643,0.0053,0.0709,0.0751
446,3.2010,-2.1596,9.5265,0.0067,0.0464,0.0759
454,3.2034,-2.1117,9.4691,0.0123,0.0173,0.0687
462,3.2633,-2.2170,9.3230,0.0195,0.0115,0.0560
471,3.3423,-2.2218,9.2416,0.0296,0.0005,0.0402
479,3.2872,-2.2625,9.2919,0.0370,0.0013,0.0240
486,3.2585,-2.2817,9.1985,0.0474,0.0099,0.0133
494,3.2944,-2.2673,9.2560,0.0445,0.0184,-0.0024
502,3.2609,-2.2458,9.3015,0.0370,0.0274,-0.0056
510,2.9999,-2.1284,9.2632,0.0234,0.0277,-0.0011
519,3.0311,-2.1213,9.2775,0.0024,0.0290,0.0037
527,3.0023,-2.1500,9.2919,-0.0096,0.0341,0.0107
534,3.0813,-2.1715,9.3063,-0.0213,0.0394,0.0125
542,3.0574,-2.1907,9.2512,-0.0346,0.0309,0.0173
550,2.9353,-2.2122,9.2560,-0.0429,0.0341,0.0256
559,2.9592,-2.2793,9.3422,-0.0400,0.0187,0.0301
567,3.0047,-2.2601,9.4092,-0.0373,-0.0059,0.0381
574,3.0574,-2.3056,9.4739,-0.0258,-0.0402,0.0456
582,3.1173,-2.2553,9.4547,-0.0109,-0.0648,0.0496
590,3.2896,-2.3104,9.4547,0.0096,-0.0717,0.0328
599,3.3112,-2.3008,9.2680,0.0189,-0.0717,0.0171
607,3.1819,-2.2434,9.1339,0.0216,-0.0544,0.0115
615,3.0574,-2.2769,9.1626,0.0171,-0.0360,0.0059
622,3.0478,-2.2338,9.2512,0.0123,-0.0131,0.0075
630,3.1340,-2.2194,9.2129,0.0085,0.0061,0.0048
638,3.1149,-2.2122,9.1913,0.0037,0.0147,0.0035
647,2.9928,-2.2769,9.2009,-0.0021,0.0264,0.0037
655,2.9951,-2.2242,9.2919,-0.0005,0.0320,0.0115
662,2.9712,-2.1931,9.3637,-0.0067,0.0203,0.0282
670,3.0023,-2.1811,9.4882,-0.0069,-0.0088,0.0493
678,3.0191,-2.1907,9.4164,-0.0029,-0.0370,0.0730
687,3.0861,-2.1739,9.4715,0.0040,-0.0557,0.0847
695,3.2082,-2.2027,9.4882,0.0192,-0.0512,0.0823
703,3.3686,-2.2122,9.3805,0.0368,-0.0338,0.0685
710,3.3160,-2.2362,9.3039,0.0421,-0.0088,0.0557
718,3.2872,-2.2960,9.1889,0.0429,0.0189,0.0464
727,3.2633,-2.2386,9.1842,0.0320,0.0493,0.0362
735,3.2010,-2.2266,9.0142,0.0211,0.0669,0.0229
743,3.1388,-2.2266,9.1219,0.0043,0.0869,0.0131
750,3.1508,-2.2170,9.0453,-0.0128,0.0946,0.0077
758,3.1077,-2.2122,9.2464,-0.0234,0.0903,0.0069
766,3.2298,-2.2577,9.3230,-0.0306,0.0810,0.0107
775,3.2154,-2.2122,9.3278,-0.0349,0.0773,0.0056
783,3.0933,-2.2793,9.2703,-0.0330,0.0805,0.0059
791,3.0478,-2.1763,9.4116,-0.0240,0.0663,0.0123
798,3.0311,-2.1931,9.4308,-0.0128,0.0434,0.0242
806,2.9760,-2.1859,9.4403,0.0008,0.0139,0.0274
815,2.9640,-2.2075,9.3470,0.0099,-0.0221,0.0317
823,3.0287,-2.1428,9.2368,0.0069,-0.0314,0.0285
831,3.0742,-2.2242,9.2273,0.0072,-0.0357,0.0309
838,3.2082,-2.1955,9.3230,-0.0059,-0.0338,0.0285
846,3.1891,-2.1691,9.2344,-0.0213,-0.0221,0.0242
855,3.2417,-2.2673,9.2464,-0.0320,0.0040,0.0277
863,3.2825,-2.2601,9.1866,-0.0336,0.0450,0.0261
871,3.2274,-2.2673,9.2440,-0.0312,0.0786,0.0269
878,3.1101,-2.2266,9.3805,-0.0290,0.0810,0.0341
886,3.1484,-2.2434,9.3996,-0.0360,0.0608,0.0402
894,3.0694,-2.2314,9.3589,-0.0309,0.0378,0.0469
903,2.9856,-2.2697,9.0908,-0.0296,0.0290,0.0530
911,2.9449,-2.2960,9.1195,-0.0288,0.0245,0.0533
919,3.0071,-2.2960,9.1674,-0.0296,0.0147,0.0552
926,3.0502,-2.2817,9.0022,-0.0187,0.0160,0.0573
934,3.0287,-2.2697,9.0261,-0.0144,0.0280,0.0541
943,2.8611,-2.2362,8.9830,-0.0115,0.0440,0.0642
951,2.6217,-2.1883,8.8274,-0.0211,0.0314,0.1007
959,2.4708,-2.1596,8.0972,-0.0256,0.0850,0.1588
966,1.8962,-2.1141,7.2736,-0.0677,0.1964,0.2731
974,0.3663,-2.0734,6.6966,-0.1727,0.2982,0.4882
983,-0.8475,-3.4357,4.7190,-0.4719,0.1348,0.9033
991,-1.9345,-3.5721,3.3016,-0.7234,0.2148,1.4186
999,-2.1356,-4.7166,0.1006,-1.3731,-0.3605,1.9969
1007,0.8308,-7.2927,-1.2977,-2.1253,-1.4128,2.2402
1014,0.5243,-6.1244,-1.4892,-2.4776,-1.1658,2.0459
1022,0.5339,-6.0765,-1.3336,-2.7384,-0.8170,1.8447
1031,0.2155,-5.7844,-0.4238,-2.8698,-0.5878,1.6934
1039,-0.1915,-5.8323,0.3112,-2.8927,-0.5598,1.5926
1047,-0.5866,-5.4899,1.1875,-2.8037,-0.7378,1.5074
1054,-0.3926,-5.2553,1.4676,-2.6265,-0.9643,1.4488
1062,-0.3567,-4.8363,1.4988,-2.4173,-1.2052,1.3944
1071,-0.0048,-4.4724,1.3072,-2.2335,-1.4040,1.3118
1079,0.0096,-4.3263,1.1516,-2.0901,-1.5937,1.1836
1087,0.3352,-4.2018,0.7973,-2.0019,-1.7456,1.0325
1095,0.5363,-4.3766,0.8811,-1.8882,-1.8511,0.8420
1102,0.6033,-4.3574,0.9266,-1.7432,-1.8343,0.6371
1111,0.4956,-4.4388,1.0511,-1.5852,-1.7981,0.4349
1119,0.3328,-4.4412,1.0127,-1.4325,-1.7904,0.2510
1127,0.0670,-4.6759,1.1971,-1.2606,-1.8266,0.0906
1135,-0.1006,-5.0542,1.1612,-1.0821,-1.8740,-0.0448
1142,-0.4214,-5.4899,1.2043,-0.9065,-1.9364,-0.1676
1150,-0.6560,-5.9568,1.1372,-0.7488,-2.0161,-0.2654
1159,-0.8547,-6.6942,1.0822,-0.6091,-2.0832,-0.3467
1167,-1.1995,-7.3837,0.8930,-0.4834,-2.1040,-0.3888
1175,-1.5299,-8.2193,0.4980,-0.3989,-2.0512,-0.3794
1183,-1.9441,-8.9280,0.1125,-0.3709,-1.9329,-0.3150
1190,-2.3320,-9.6127,-0.4214,-0.4463,-1.7531,-0.1799
1199,-2.8826,-10.0676,-1.0367,-0.6390,-1.5775,0.0517
1207,-3.3519,-10.5129,-1.5993,-0.9523,-1.3368,0.3691
1215,-3.7014,-10.6710,-2.1165,-1.3720,-1.0603,0.7813
1223,-4.0773,-10.8074,-2.4852,-1.8916,-0.7765,1.2657
1230,-4.3072,-10.9750,-2.5259,-2.4640,-0.5220,1.8053
1239,-4.4652,-11.5113,-2.2793,-3.0246,-0.2872,2.3766
1247,-4.1803,-12.3517,-1.4940,-3.4491,-0.0746,2.8853
1255,-3.8475,-13.2328,-0.9122,-3.7379,0.1210,3.3079
1263,-3.5267,-14.1042,-0.3663,-3.9095,0.3333,3.6383
1271,-3.0813,-15.0571,0.3567,-3.9538,0.5558,3.8499
1278,-2.4995,-15.9047,0.6871,-3.9055,0.7906,3.9295
1287,-2.0111,-16.5798,1.1564,-3.7750,1.0136,3.8776
1295,-1.5155,-17.0036,1.5371,-3.5749,1.2103,3.6852
1303,-1.1468,-17.3268,1.8579,-3.3284,1.3635,3.3777
1311,-0.9194,-17.3268,2.1308,-3.0355,1.4778,2.9873
1318,-0.8811,-17.3053,2.3343,-2.7065,1.5495,2.5698
1327,-1.0774,-17.1521,2.5211,-2.3622,1.5751,2.1783
1335,-1.5658,-17.0228,2.6935,-1.9993,1.5495,1.8594
1343,-2.0279,-17.2718,2.6432,-1.6425,1.5071,1.6494
1351,-2.2817,-17.6117,2.4181,-1.3046,1.5007,1.4885
1359,-2.5977,-17.7147,1.9680,-1.0264,1.5423,1.4027
1367,-2.9137,-17.9589,1.3838,-0.8521,1.6555,1.3923
1375,-3.1819,-18.2295,0.7159,-0.8045,1.8298,1.4389
1383,-3.4716,-18.4354,0.1915,-0.8783,2.0411,1.5394
1391,-3.7110,-18.7394,-0.2059,-1.0752,2.2412,1.6555
1399,-3.8164,-19.1488,-0.2729,-1.3456,2.4171,1.8074
1406,-3.7685,-19.6468,-0.2442,-1.6534,2.5434,1.9140
1415,-3.5075,-20.2406,0.3376,-1.9071,2.6135,1.9548
1423,-3.3112,-20.6811,0.8452,-2.0787,2.6231,1.9255
1431,-3.0622,-20.9924,1.1971,-2.1647,2.6071,1.8399
1439,-2.7773,-20.9924,1.4030,-2.1853,2.6111,1.6840
1447,-2.4876,-20.9205,1.4533,-2.1733,2.6510,1.5031
1455,-2.4924,-20.9205,1.3695,-2.1501,2.7126,1.2886
1463,-2.7031,-20.8870,1.3336,-2.1309,2.7725,1.0960
1471,-3.0789,-20.9181,1.1732,-2.1504,2.7957,0.9515
1479,-3.4429,-21.0929,1.0056,-2.2183,2.7797,0.8703
1487,-3.7637,-21.3395,0.8284,-2.3371,2.7374,0.8495
1495,-4.0294,-21.3850,0.5531,-2.5229,2.6777,0.8676
1503,-4.2569,-21.3515,0.0742,-2.7872,2.6265,0.9318
1511,-4.3503,-21.3994,-0.2322,-3.1400,2.6063,1.0352
1519,-4.4101,-21.4616,-0.5052,-3.5344,2.6340,1.1564
1527,-4.4508,-21.6675,-0.1939,-3.9301,2.6766,1.2814
1534,-4.3024,-21.8806,0.1604,-4.2527,2.6755,1.3821
1543,-4.2401,-22.1176,0.6680,-4.4832,2.6284,1.4440
1551,-4.0821,-22.1990,1.1827,-4.6151,2.5311,1.4690
1559,-3.8068,-22.1727,1.7454,-4.6423,2.4070,1.4544
1567,-3.6200,-22.0650,2.2841,-4.5586,2.2449,1.4080
1575,-3.4405,-21.6627,2.6552,-4.3929,2.0478,1.3374
1583,-3.2753,-21.1432,3.0622,-4.1526,1.8221,1.2582
1591,-3.2298,-20.5925,3.1532,-3.8592,1.5668,1.1703
1599,-3.1388,-20.0155,3.2537,-3.5298,1.2859,1.1026
1607,-3.0406,-19.3619,3.2274,-3.1802,1.0240,1.0509
1615,-3.0191,-18.7921,3.0765,-2.8384,0.7791,1.0142
1623,-3.0646,-18.4042,2.6767,-2.5591,0.5446,1.0000
1631,-2.9305,-18.0619,2.2697,-2.3473,0.3328,0.9910
1639,-2.9449,-17.7554,1.8052,-2.2026,0.1316,0.9843
1647,-2.8587,-17.5232,1.4485,-2.1189,-0.0306,0.9747
1655,-2.7821,-17.2239,1.0558,-2.0987,-0.1735,0.9662
1664,-2.7318,-16.8743,0.8978,-2.1360,-0.3011,0.9606
1671,-2.6480,-16.6876,0.5962,-2.2138,-0.4199,0.9529
1679,-2.5331,-16.4697,0.5483,-2.2993,-0.5180,0.9390
1687,-2.4804,-16.2016,0.6105,-2.3843,-0.6115,0.9190
1695,-2.4493,-16.1321,0.6536,-2.4448,-0.6984,0.8926
1703,-2.3343,-15.8831,0.7230,-2.4797,-0.7970,0.8567
1711,-2.2601,-15.6150,0.8284,-2.4922,-0.8687,0.8271
1719,-2.2386,-15.3085,0.6919,-2.4890,-0.9238,0.7946
1727,-2.1787,-14.9446,0.7063,-2.4890,-0.9654,0.7674
1735,-2.1859,-14.5663,0.6369,-2.4930,-1.0027,0.7496
1743,-2.2505,-14.2096,0.5698,-2.5053,-1.0349,0.7562
1752,-2.2458,-13.8552,0.4980,-2.5218,-1.0581,0.7743
1759,-2.2553,-13.4889,0.3879,-2.5471,-1.0640,0.8045
1767,-2.3152,-13.1490,0.2753,-2.5751,-1.0651,0.8455
1775,-2.2290,-12.7922,0.2203,-2.6196,-1.0429,0.8996
1783,-2.2218,-12.3900,0.1341,-2.6676,-1.0011,0.9665
1792,-2.2505,-12.0189,0.1006,-2.7248,-0.9478,1.0419
1799,-2.1069,-11.6933,0.0575,-2.7733,-0.8847,1.1170
1807,-2.0016,-11.3916,0.0958,-2.8072,-0.7989,1.1887
1815,-1.8794,-10.9463,0.0958,-2.8269,-0.7163,1.2492
1823,-1.8364,-10.6039,0.1891,-2.8298,-0.6305,1.3035
1831,-1.7047,-10.2951,0.2634,-2.8144,-0.5375,1.3403
1840,-1.6233,-9.9742,0.4693,-2.7832,-0.4453,1.3768
1847,-1.5538,-9.6462,0.4405,-2.7304,-0.3531,1.3917
1855,-1.3886,-9.3206,0.5459,-2.6585,-0.2689,1.4024
1863,-1.3934,-8.9184,0.5602,-2.5706,-0.1865,1.4013
1871,-1.2378,-8.6000,0.6488,-2.4730,-0.0986,1.3813
1880,-1.1564,-8.2720,0.6584,-2.3563,-0.0096,1.3560
1887,-1.0606,-7.9679,0.6608,-2.2335,0.0786,1.3267
1895,-1.0032,-7.5633,0.7207,-2.1019,0.1697,1.2851
1903,-0.8954,-7.2257,0.6823,-1.9641,0.2619,1.2393
1911,-0.7733,-6.8977,0.7590,-1.8266,0.3552,1.1916
1920,-0.8021,-6.6176,0.6847,-1.6832,0.4525,1.1410
1928,-0.7685,-6.2848,0.6680,-1.5439,0.5351,1.0869
1935,-0.7446,-6.0621,0.7087,-1.4005,0.6211,1.0355
1943,-0.6345,-5.7533,0.7446,-1.2558,0.7139,0.9800
1951,-0.6177,-5.4851,0.6656,-1.1122,0.7983,0.9244
1959,-0.5602,-5.2816,0.6129,-0.9787,0.8791,0.8732
1968,-0.4836,-5.0350,0.6129,-0.8426,0.9561,0.8140
1975,-0.5626,-4.8602,0.6033,-0.7181,1.0485,0.7594
1983,-0.4501,-4.6974,0.6105,-0.5937,1.1341,0.7024
1991,-0.4094,-4.5155,0.4501,-0.4714,1.2223,0.6478
1999,-0.4597,-4.3551,0.4836,-0.3568,1.3155,0.5897
2008,-0.4022,-4.3000,0.5004,-0.2529,1.3925,0.5372
2016,-0.3472,-4.1132,0.5818,-0.1420,1.4687,0.4780
2023,-0.3232,-4.1396,0.5698,-0.0336,1.5354,0.4239
2031,-0.3998,-4.0869,0.5387,0.0690,1.5913,0.3706
2039,-0.3256,-3.9792,0.6345,0.1809,1.6467,0.3091
2048,-0.2921,-3.9863,0.5171,0.2936,1.6867,0.2486
2056,-0.3376,-4.0270,0.5459,0.4061,1.7211,0.1895
2063,-0.3065,-4.0294,0.6009,0.5233,1.7528,0.1226
2071,-0.2682,-4.1132,0.6895,0.6406,1.7701,0.0565
2079,-0.2825,-4.1539,0.5938,0.7698,1.7674,-0.0163
2087,-0.3926,-4.2760,0.7278,0.9001,1.7453,-0.0834
2096,-0.3591,-4.4365,0.7949,1.0357,1.7054,-0.1545
2104,-0.3496,-4.5418,0.8140,1.1900,1.6406,-0.2249
2111,-0.4118,-4.7429,0.9074,1.3510,1.5591,-0.2875
2119,-0.4621,-4.9416,1.0798,1.5268,1.4530,-0.3560
2127,-0.4812,-5.1523,1.1372,1.7056,1.3320,-0.4181
2136,-0.5674,-5.5043,1.2163,1.9175,1.1868,-0.4812
2144,-0.6273,-5.8251,1.2570,2.1376,1.0304,-0.5380
2151,-0.7063,-6.1723,1.2234,2.3627,0.8639,-0.5913
2159,-0.7183,-6.5457,1.2210,2.5820,0.6859,-0.6443
2167,-0.8954,-7.0701,1.2474,2.8106,0.5007,-0.7024
2176,-0.9625,-7.5992,1.3479,3.0459,0.2998,-0.7626
2184,-1.0965,-8.1618,1.3503,3.2873,0.0818,-0.8215
2191,-1.2139,-8.8969,1.3096,3.5269,-0.1383,-0.8844
2199,-1.3647,-9.6534,1.3240,3.7720,-0.3757,-0.9537
2207,-1.5514,-10.5201,1.2043,4.0161,-0.6107,-1.0190
2215,-1.7071,-11.4778,1.1085,4.2416,-0.8495,-1.0885
2224,-1.9273,-12.4642,1.0343,4.4475,-1.0914,-1.1572
2232,-2.2434,-13.5033,0.9744,4.6197,-1.3363,-1.2140
2239,-2.4708,-14.6214,0.6919,4.7492,-1.5508,-1.2681
2247,-2.6671,-15.5719,0.2993,4.8243,-1.7272,-1.3041
2255,-3.0215,-16.3763,-0.0168,4.8190,-1.8799,-1.3129
2264,-3.1819,-17.0276,-0.3687,4.7372,-2.0153,-1.2995
2272,-3.4644,-17.4058,-0.7518,4.5706,-2.1229,-1.2566
2279,-3.5865,-17.3675,-1.0199,4.3351,-2.2028,-1.1807
2287,-3.6583,-17.0324,-1.3934,4.0316,-2.2647,-1.0658
2295,-3.6799,-16.2662,-1.4629,3.6817,-2.3118,-0.9411
2304,-3.5362,-15.2966,-1.6735,3.3228,-2.3497,-0.7951
2312,-3.2585,-14.3077,-1.6688,2.9503,-2.3691,-0.6603
2320,-3.0502,-13.6422,-1.4461,2.6076,-2.3803,-0.5412
2327,-2.8970,-13.1585,-1.2186,2.3323,-2.4024,-0.4461
2335,-2.6983,-12.9646,-1.0151,2.1019,-2.4435,-0.3813
2343,-2.5594,-13.1370,-0.8787,1.8940,-2.4898,-0.3472
2352,-2.4756,-13.6039,-1.0008,1.6593,-2.5034,-0.3429
2360,-2.5211,-14.3700,-1.3096,1.4389,-2.4573,-0.3560
2367,-2.6025,-15.4378,-1.4246,1.1429,-2.3699,-0.3728
2375,-2.8730,-16.7834,-1.2761,0.8543,-2.2972,-0.3901
2383,-3.0765,-18.0116,-0.9170,0.5979,-2.2484,-0.4088
2392,-3.1508,-18.9166,-0.7039,0.3848,-2.2324,-0.4234
2400,-3.1963,-19.4936,-0.3950,0.2145,-2.2159,-0.4357
2408,-3.0861,-19.6133,-0.0359,0.1130,-2.1980,-0.4663
2415,-3.0167,-19.2877,0.4334,0.1045,-2.1858,-0.5196
2423,-2.8347,-18.7418,1.0558,0.2121,-2.1842,-0.5918
2432,-2.6600,-18.1433,1.5945,0.4431,-2.2039,-0.6845
2440,-2.4948,-17.6596,2.0494,0.7933,-2.2820,-0.7917
2448,-2.4062,-17.4274,2.5235,1.2414,-2.3835,-0.9313
2455,-2.2146,-17.3149,2.5738,1.7437,-2.4861,-1.1088
2463,-2.0207,-17.3891,2.3272,2.2124,-2.5682,-1.3398
2471,-2.0135,-17.7985,1.6496,2.5921,-2.6009,-1.6121
2480,-2.0111,-18.4808,1.2785,2.8850,-2.5855,-1.9065
2488,-2.1165,-19.2446,0.8452,3.0958,-2.5522,-2.2186
2496,-2.2003,-19.9557,0.5195,3.2303,-2.5058,-2.5434
2503,-2.3798,-20.5231,0.3256,3.3044,-2.4520,-2.8631
2511,-2.6863,-20.9995,0.0383,3.3345,-2.3776,-3.1616
2520,-3.0311,-21.5382,0.1006,3.3462,-2.2881,-3.4139
2528,-3.4764,-21.9261,0.2418,3.3604,-2.2060,-3.6100
2536,-3.7541,-22.1128,0.1987,3.3777,-2.1408,-3.7342
2543,-4.1492,-22.0506,-0.0144,3.3905,-2.0619,-3.7880
2551,-4.3167,-21.8279,-0.0215,3.3795,-1.9628,-3.7648
2560,-4.5897,-21.1959,-0.3711,3.3191,-1.8341,-3.6668
2568,-4.7836,-20.3986,-0.5698,3.2170,-1.6617,-3.4859
2576,-4.8626,-19.5247,-0.7901,3.0614,-1.5412,-3.2410
2584,-4.9081,-18.6556,-0.9170,2.8661,-1.3944,-2.9468
2591,-4.7573,-17.7698,-1.0942,2.6521,-1.2585,-2.6303
2599,-4.5849,-17.0395,-1.0654,2.4325,-1.1303,-2.3164
2608,-4.2329,-16.4841,-1.0367,2.2079,-1.0102,-2.0347
2616,-3.8595,-16.1441,-0.9673,2.0035,-0.8972,-1.7973
2624,-3.6775,-15.8089,-0.9720,1.7954,-0.7738,-1.6014
2631,-3.4381,-15.6078,-0.9625,1.6214,-0.6451,-1.4389
2639,-3.1963,-15.6892,-0.9960,1.4043,-0.5025,-1.3110
2648,-3.1388,-15.8352,-0.9840,1.2036,-0.3595,-1.2020
2656,-3.0861,-15.9023,-0.9337,1.0227,-0.2108,-1.1111
2664,-2.9904,-16.0052,-0.6464,0.8529,-0.0757,-1.0264
2672,-3.0047,-15.9861,-0.4597,0.7184,0.0405,-0.9526
2679,-2.8970,-15.8783,-0.1437,0.6297,0.1271,-0.8934
2688,-2.8132,-15.7491,0.1149,0.5825,0.1969,-0.8455
2696,-2.6528,-15.4953,0.3567,0.5774,0.2459,-0.8188
2704,-2.5019,-15.1385,0.5938,0.6294,0.2960,-0.8167
2712,-2.3080,-14.7387,0.5890,0.7083,0.3363,-0.8303
2719,-2.1404,-14.3437,0.7829,0.8218,0.3635,-0.8647
2727,-2.0303,-13.8552,0.8188,0.9553,0.3829,-0.9188
2736,-1.8914,-13.5608,0.8380,1.0944,0.3896,-0.9878
2744,-1.7286,-13.1490,0.8428,1.2372,0.3853,-1.0704
2752,-1.5945,-12.7515,0.8475,1.3765,0.3816,-1.1650
2759,-1.4437,-12.5528,0.8906,1.5146,0.3752,-1.2809
2767,-1.3934,-12.3134,0.8045,1.6315,0.3592,-1.4104
2776,-1.2210,-12.1673,0.7566,1.7770,0.3541,-1.5529
2784,-1.1181,-11.9255,0.7183,1.9111,0.3571,-1.7221
2792,-1.1684,-11.8752,0.6249,2.0422,0.3539,-1.8932
2800,-1.2977,-11.7100,0.5171,2.1557,0.3333,-2.0491
2807,-1.4341,-11.6526,0.5100,2.2460,0.3142,-2.1711
2816,-1.5802,-11.5616,0.3807,2.3222,0.2904,-2.2543
2824,-1.7885,-11.3365,0.2610,2.3803,0.2723,-2.3086
2832,-1.9130,-11.2073,0.1125,2.4136,0.2523,-2.3339
2840,-2.0375,-10.9008,0.0455,2.4189,0.2382,-2.3204
2847,-2.0494,-10.5896,-0.1077,2.4006,0.2286,-2.2825
2855,-2.2122,-10.1801,-0.2682,2.3577,0.2214,-2.2036
2864,-2.2649,-9.6534,-0.3711,2.2860,0.2134,-2.0928
2872,-2.2889,-9.2943,-0.5028,2.1813,0.2020,-1.9638
2880,-2.3032,-8.7747,-0.5052,2.0619,0.1943,-1.8090
2888,-2.2601,-8.2959,-0.6632,1.9183,0.1836,-1.6337
2895,-2.2745,-7.7788,-0.6871,1.7605,0.1700,-1.4514
2904,-2.2122,-7.3550,-0.6752,1.6209,0.1551,-1.2636
2912,-2.1117,-6.9576,-0.7039,1.4288,0.1391,-1.0762
2920,-1.9561,-6.6128,-0.6416,1.2684,0.1029,-0.9065
2928,-1.8651,-6.2944,-0.6440,1.1175,0.0791,-0.7512
2935,-1.6999,-6.0023,-0.4980,0.9739,0.0549,-0.6113
2944,-1.4772,-5.7197,-0.5148,0.8348,0.0365,-0.4892
2952,-1.4222,-5.5474,-0.5411,0.6997,0.0208,-0.3840
2960,-1.3072,-5.3750,-0.4453,0.5734,0.0056,-0.2896
2968,-1.2091,-5.0973,-0.4118,0.4506,-0.0152,-0.2142
2976,-1.1588,-5.0302,-0.3615,0.3371,-0.0386,-0.1484
2983,-1.0319,-4.9081,-0.3136,0.2297,-0.0666,-0.0927
2992,-1.0487,-4.8100,-0.2442,0.1271,-0.1031,-0.0352
3000,-1.0702,-4.7621,-0.1844,0.0352,-0.1356,0.0144
3008,-0.9984,-4.6855,-0.1652,-0.0525,-0.1711,0.0608
3016,-0.8787,-4.5873,-0.1532,-0.1324,-0.1998,0.1071
3023,-0.9098,-4.5945,-0.1963,-0.2036,-0.2244,0.1476
3032,-0.9816,-4.5849,-0.1963,-0.2753,-0.2427,0.1889
3040,-0.9553,-4.5993,-0.1389,-0.3416,-0.2550,0.2332
3048,-0.9361,-4.7381,-0.1221,-0.4074,-0.2763,0.2809
3056,-1.0582,-4.8626,-0.0886,-0.4743,-0.2939,0.3331
3064,-1.1181,-4.9536,-0.1365,-0.5521,-0.3182,0.3970
3072,-1.2043,-5.1020,-0.2514,-0.6323,-0.3312,0.4684
3080,-1.2210,-5.2744,-0.1844,-0.7157,-0.3421,0.5481
3088,-1.3001,-5.4803,-0.2849,-0.7978,-0.3344,0.6355
3096,-1.3479,-5.7269,-0.2777,-0.8855,-0.3262,0.7216
3104,-1.3815,-5.8969,-0.1844,-0.9691,-0.3126,0.8130
3111,-1.3886,-6.0932,-0.2634,-1.0576,-0.2958,0.9108
3120,-1.4557,-6.3351,-0.2466,-1.1407,-0.2689,1.0011
3128,-1.4772,-6.6176,-0.3136,-1.2249,-0.2430,1.0928
3136,-1.4748,-6.9145,-0.2370,-1.3067,-0.2076,1.1778
3144,-1.5467,-7.1778,-0.2466,-1.3813,-0.1735,1.2590
3152,-1.4988,-7.4627,-0.1006,-1.4501,-0.1295,1.3355
3160,-1.5897,-7.7835,-0.1269,-1.5090,-0.0815,1.4072
3168,-1.5730,-8.2193,-0.1053,-1.5671,-0.0296,1.4701
3176,-1.6161,-8.6335,-0.0551,-1.6132,0.0245,1.5274
3184,-1.6113,-8.9735,0.1269,-1.6545,0.0839,1.5716
3192,-1.6496,-9.3733,-0.0096,-1.6875,0.1529,1.6321
3200,-1.6951,-9.7492,0.0910,-1.7155,0.2169,1.6347
3208,-1.6903,-10.0676,0.1197,-1.7429,0.2926,1.6673
3216,-1.6759,-10.2783,0.2298,-1.7525,0.3560,1.6795
3224,-1.7238,-10.6374,0.3376,-1.7555,0.4261,1.7006
3232,-1.7214,-10.8984,0.3591,-1.7504,0.4964,1.7051
3240,-1.6999,-11.1498,0.4836,-1.7341,0.5588,1.6984
3248,-1.7382,-11.3318,0.5291,-1.7070,0.6273,1.7006
3256,-1.7166,-11.5209,0.5986,-1.6657,0.6923,1.6651
3264,-1.7549,-11.7483,0.6488,-1.6201,0.7517,1.6752
3272,-1.7406,-11.8944,0.6847,-1.5676,0.8196,1.6230
3280,-1.7358,-12.1362,0.8045,-1.5122,0.8897,1.6193
3288,-1.8028,-12.3325,0.7374,-1.4552,0.9545,1.5772
3296,-1.7909,-12.5720,0.7254,-1.4048,1.0131,1.5236
3304,-1.8459,-12.7850,0.6919,-1.3603,1.0651,1.4757
3312,-1.8364,-13.1059,0.5746,-1.3259,1.1045,1.4240
3320,-1.9656,-13.3070,0.7853,-1.2820,1.1575,1.3749
3328,-1.9561,-13.5871,0.6991,-1.2396,1.2180,1.3238
3336,-2.0135,-13.8505,0.7422,-1.2068,1.2793,1.2764
3344,-2.1213,-13.9941,0.7781,-1.1842,1.3320,1.2324
3352,-2.2386,-14.3556,0.7422,-1.1663,1.3880,1.1988
3360,-2.3559,-14.6094,0.7997,-1.1594,1.4360,1.1780
3368,-2.3703,-14.8010,0.6249,-1.1703,1.4829,1.1671
3376,-2.5762,-15.0787,0.6129,-1.2041,1.5231,1.1684
3384,-2.6839,-15.2870,0.5578,-1.2617,1.5655,1.1895
3392,-2.7557,-15.5408,0.4262,-1.3528,1.6049,1.2156
3400,-2.7821,-15.7060,0.2753,-1.4501,1.6489,1.2542
3408,-2.8946,-15.9597,0.1125,-1.5719,1.7035,1.3091
3416,-3.0861,-16.0795,0.0910,-1.7091,1.7453,1.3699
3424,-3.0885,-16.3356,0.1844,-1.8562,1.7890,1.4368
3432,-3.1771,-16.4817,0.2298,-2.0113,1.8186,1.4999
3440,-3.1484,-16.7091,0.3184,-2.1687,1.8349,1.5649
3448,-3.2034,-17.0180,0.2729,-2.3307,1.8535,1.6286
3457,-3.1364,-17.2598,0.3831,-2.4808,1.8567,1.6385
3464,-3.1077,-17.5639,0.4501,-2.6215,1.8434,1.6779
3472,-3.0765,-17.8176,0.4741,-2.7358,1.8277,1.6990
3480,-3.1244,-18.1002,0.6776,-2.8370,1.8061,1.6763
3488,-3.0478,-18.2414,0.7542,-2.9196,1.7616,1.6705
3496,-2.9856,-18.4832,0.9194,-2.9761,1.7307,1.6614
3504,-3.0143,-18.5934,1.0104,-3.0116,1.6976,1.6198
3512,-2.9999,-18.6532,1.0487,-3.0321,1.6414,1.6198
3520,-3.0454,-18.5982,1.2498,-3.0393,1.5727,1.5753
3528,-2.9521,-18.5838,1.2881,-3.0243,1.4919,1.5444
3536,-3.0047,-18.4090,1.4246,-2.9916,1.3984,1.5090
3545,-2.9664,-18.3683,1.4653,-2.9455,1.2905,1.4797
3552,-2.9425,-18.1552,1.4054,-2.8818,1.1850,1.4493
3560,-2.8850,-18.0188,1.5251,-2.8051,1.0733,1.4173
3568,-2.8012,-17.7889,1.5227,-2.7198,0.9766,1.3816
3576,-2.7605,-17.6357,1.5467,-2.6319,0.8724,1.3400
3585,-2.7078,-17.4609,1.5443,-2.5367,0.7759,1.2942
3592,-2.6288,-17.3484,1.5514,-2.4435,0.6771,1.2489
3600,-2.6025,-17.2047,1.5874,-2.3545,0.5748,1.2017
3608,-2.4995,-17.0563,1.4389,-2.2695,0.4831,1.1535
3616,-2.5714,-16.8959,1.2570,-2.2028,0.3952,1.1074
3624,-2.6121,-16.7642,1.2306,-2.1474,0.3054,1.0688
3633,-2.5642,-16.6205,1.1181,-2.1011,0.2209,1.0411
3640,-2.6360,-16.5224,1.0822,-2.0701,0.1399,1.0184
3648,-2.6671,-16.3500,0.8906,-2.0512,0.0706,1.0136
3656,-2.6863,-16.1058,0.8930,-2.0502,0.0160,1.0078
3664,-2.6408,-15.8831,0.6943,-2.0576,-0.0290,1.0152
3673,-2.6217,-15.7371,0.6584,-2.0776,-0.0658,1.0323
3680,-2.6935,-15.5120,0.5770,-2.1088,-0.0911,1.0536
3688,-2.6288,-15.2582,0.5028,-2.1466,-0.1111,1.0821
3696,-2.5355,-15.0643,0.4477,-2.1938,-0.1250,1.1090
3704,-2.6121,-14.8081,0.3783,-2.2463,-0.1362,1.1410
3713,-2.4493,-14.5137,0.3208,-2.2905,-0.1431,1.1700
3721,-2.3655,-14.2886,0.3639,-2.3441,-0.1458,1.1956
3728,-2.3631,-14.0540,0.2753,-2.3883,-0.1474,1.2228
3736,-2.2889,-13.8121,0.4214,-2.4259,-0.1447,1.2430
3744,-2.2003,-13.6374,0.3735,-2.4541,-0.1388,1.2596
3752,-2.1931,-13.3812,0.4836,-2.4725,-0.1284,1.2750
3761,-2.1308,-13.1513,0.5100,-2.4832,-0.1140,1.2867
3768,-2.0446,-12.8425,0.4214,-2.4776,-0.0997,1.2966
3776,-2.0135,-12.5624,0.5794,-2.4680,-0.0821,1.3001
3784,-1.9034,-12.3254,0.6656,-2.4427,-0.0605,1.3011
3792,-1.8172,-12.0380,0.6201,-2.4083,-0.0410,1.2961
3801,-1.8148,-11.7292,0.5650,-2.3622,-0.0208,1.2870
3809,-1.7358,-11.3916,0.6416,-2.3062,-0.0077,1.2713
3816,-1.7047,-11.0349,0.6297,-2.2428,0.0080,1.2545
3824,-1.6376,-10.7380,0.7302,-2.1669,0.0248,1.2343
3832,-1.5155,-10.4148,0.6704,-2.0827,0.0450,1.2073
3841,-1.4365,-10.1323,0.7661,-1.9945,0.0711,1.1756
3849,-1.3192,-9.8426,0.7829,-1.8940,0.0954,1.1386
3856,-1.2689,-9.5002,0.7254,-1.7912,0.1348,1.0917
3864,-1.2234,-9.2177,0.6800,-1.6928,0.1593,1.0475
3872,-1.1851,-8.9615,0.6680,-1.5863,0.1900,0.9947
3880,-1.1061,-8.6646,0.6991,-1.4810,0.2246,0.9427
3889,-1.0870,-8.4084,0.6752,-1.3779,0.2561,0.8900
3897,-1.0247,-8.2839,0.7183,-1.2732,0.3003,0.8306
3904,-0.9816,-7.9487,0.5555,-1.1759,0.3408,0.7767
3912,-1.0008,-7.8051,0.6249,-1.0784,0.3749,0.7144
3920,-0.8787,-7.6399,0.6321,-0.9806,0.4157,0.6566
3929,-0.8691,-7.4651,0.5267,-0.8831,0.4636,0.6038
3937,-0.9122,-7.2305,0.5602,-0.7938,0.5127,0.5473
3944,-0.8859,-6.9863,0.5435,-0.7083,0.5553,0.4943
3952,-0.8356,-6.9025,0.4645,-0.6243,0.5958,0.4490
3960,-0.8667,-6.7947,0.4693,-0.5375,0.6331,0.3984
3969,-0.8523,-6.6295,0.4381,-0.4578,0.6757,0.3549
3977,-0.8906,-6.5146,0.4429,-0.3738,0.7136,0.3091
3984,-0.8452,-6.3997,0.4788,-0.2984,0.7453,0.2659
3992,-0.8140,-6.2776,0.4549,-0.2241,0.7783,0.2260
4000,-0.8092,-6.2608,0.3472,-0.1492,0.8007,0.1873
4008,-0.8332,-6.1675,0.4094,-0.0751,0.8215,0.1466
4017,-0.7350,-6.1435,0.4501,-0.0011,0.8439,0.1100
4025,-0.7494,-6.0789,0.4214,0.0725,0.8572,0.0693
4032,-0.8212,-6.0717,0.5052,0.1426,0.8673,0.0346
4040,-0.8739,-6.1411,0.3783,0.2148,0.8697,-0.0043
4048,-0.8164,-6.1363,0.5124,0.2886,0.8641,-0.0402
4057,-0.8092,-6.1651,0.3855,0.3571,0.8516,-0.0791
4065,-0.8380,-6.2537,0.5148,0.4402,0.8348,-0.1218
4072,-0.7853,-6.3422,0.5531,0.5108,0.8055,-0.1583
4080,-0.8475,-6.3710,0.5195,0.5894,0.7781,-0.2004
4088,-0.8045,-6.4811,0.4860,0.6672,0.7394,-0.2467
4097,-0.8763,-6.6224,0.5602,0.7474,0.6835,-0.2902
4105,-0.9074,-6.7253,0.6943,0.8415,0.6230,-0.3373
4113,-0.8811,-6.8211,0.6440,0.9385,0.5513,-0.3797
4120,-0.9577,-6.9647,0.6752,1.0427,0.4695,-0.4274
4128,-1.0151,-7.1132,0.7183,1.1509,0.3848,-0.4719
4136,-1.0175,-7.3287,0.7207,1.2678,0.2918,-0.5076
4145,-1.0223,-7.5633,0.8068,1.3771,0.1956,-0.5484
4153,-1.0750,-7.7931,0.6297,1.4903,0.0927,-0.5891
4160,-1.0511,-8.0589,0.6393,1.5878,0.0024,-0.6326
4168,-1.1851,-8.3821,0.6704,1.6902,-0.0989,-0.6776
4176,-1.3001,-8.6550,0.6129,1.7832,-0.2041,-0.7216
4185,-1.3024,-8.9016,0.5578,1.8780,-0.3067,-0.7679
4193,-1.3791,-9.2296,0.5459,1.9697,-0.4080,-0.8130
4201,-1.4150,-9.6510,0.5100,2.0515,-0.5188,-0.8561
4208,-1.5371,-9.9599,0.6081,2.1312,-0.6299,-0.8993
4216,-1.6328,-10.2376,0.5459,2.2076,-0.7397,-0.9427
4225,-1.6664,-10.6494,0.3855,2.2791,-0.8492,-0.9824
4233,-1.8124,-11.0421,0.4190,2.3435,-0.9489,-1.0176
4241,-1.8579,-11.4060,0.3974,2.3939,-1.0469,-1.0557
4248,-1.9321,-11.7460,0.3591,2.4427,-1.1442,-1.0893
4256,-2.0494,-12.1003,0.2107,2.4701,-1.2353,-1.1149
4264,-2.1428,-12.3637,0.0551,2.4845,-1.3235,-1.1343
4273,-2.2290,-12.5839,0.0455,2.4808,-1.3984,-1.1509
4281,-2.3008,-12.8114,-0.0503,2.4594,-1.4671,-1.1548
4289,-2.3966,-13.0915,-0.1221,2.4285,-1.5242,-1.1532
4296,-2.4086,-13.2064,-0.1317,2.3768,-1.5721,-1.1506
4304,-2.5091,-13.4387,-0.3041,2.3188,-1.6337,-1.1362
4313,-2.5738,-13.5703,-0.3328,2.2468,-1.6840,-1.1221
4321,-2.6145,-13.6446,-0.3280,2.1663,-1.7011,-1.1050
4329,-2.6193,-13.9127,-0.3352,2.0792,-1.7038,-1.0933
4336,-2.6384,-14.0827,-0.4238,1.9849,-1.7014,-1.0789
4344,-2.6264,-14.2694,-0.3807,1.8882,-1.6990,-1.0709
4353,-2.6217,-14.4538,-0.3663,1.7973,-1.6995,-1.0605
4361,-2.6600,-14.6932,-0.2993,1.6718,-1.6982,-1.0595
4369,-2.6025,-14.8848,-0.2466,1.6545,-1.6982,-1.0643
4377,-2.6360,-15.1553,-0.1676,1.5791,-1.6958,-1.0749
4384,-2.6193,-15.2846,-0.0646,1.5404,-1.6974,-1.0997
4392,-2.6025,-15.5144,0.1413,1.5260,-1.6880,-1.1239
4401,-2.6169,-15.6246,0.0910,1.5215,-1.6883,-1.1612
4409,-2.5642,-15.7969,0.2897,1.5340,-1.6244,-1.1985
4417,-2.6121,-15.9478,0.2873,1.5668,-1.6270,-1.2417
4424,-2.6264,-16.0723,0.3112,1.5953,-1.6323,-1.2854
4432,-2.6408,-16.1226,0.3615,1.6156,-1.6222,-1.3358
4441,-2.6719,-16.2566,0.3759,1.6870,-1.6222,-1.3877
4449,-2.6528,-16.3979,0.3663,1.7483,-1.5833,-1.4456
4457,-2.6169,-16.4817,0.3496,1.7888,-1.5503,-1.5111
4464,-2.6336,-16.5224,0.3496,1.8378,-1.5066,-1.5767
4472,-2.5594,-16.6158,0.3496,1.8906,-1.4770,-1.6443
4481,-2.6695,-16.7283,0.3232,1.9436,-1.4442,-1.7112
4489,-2.7294,-16.8169,0.2203,1.9942,-1.4035,-1.7805
4497,-2.6600,-16.9007,0.3328,2.0355,-1.3654,-1.8516
4505,-2.7509,-16.9749,0.2514,2.0835,-1.3150,-1.9140
4512,-2.7078,-17.0515,0.2274,2.1282,-1.2660,-1.9737
4520,-2.8012,-17.0515,0.2131,2.1698,-1.2103,-2.0259
4529,-2.8802,-17.0587,0.1413,2.2044,-1.1540,-2.0693
4537,-2.9497,-17.0419,0.1149,2.2303,-1.0984,-2.0984
4545,-2.9497,-17.0060,0.0934,2.2444,-1.0392,-2.1136
4552,-3.0143,-16.9821,-0.0527,2.2535,-0.9745,-2.1197
4560,-3.0861,-16.8217,-0.0599,2.2457,-0.9156,-2.1088
4569,-3.0981,-16.7139,-0.1628,2.2196,-0.8495,-2.0901
4577,-3.1077,-16.5918,-0.1796,2.1903,-0.7783,-2.0579
4585,-3.0742,-16.3500,-0.2011,2.1416,-0.7128,-2.0118
4593,-3.0478,-16.1417,-0.1867,2.0931,-0.6448,-1.9609
4600,-3.1244,-15.9526,-0.2729,2.0307,-0.5721,-1.8988
4609,-3.0646,-15.7874,-0.1772,1.9670,-0.4967,-1.8301
4617,-3.0406,-15.5743,-0.3065,1.8983,-0.4325,-1.7624
4625,-3.0047,-15.3875,-0.2969,1.8207,-0.3635,-1.6960
4633,-2.9233,-15.1936,-0.2993,1.7328,-0.2926,-1.6345
4640,-2.8515,-14.9255,-0.3136,1.6566,-0.2246,-1.5807
4648,-2.8012,-14.7172,-0.2083,1.6225,-0.1697,-1.5247
4657,-2.7605,-14.5232,-0.1963,1.5625,-0.1218,-1.4709
4665,-2.6983,-14.3317,-0.1604,1.5132,-0.0762,-1.4232
4673,-2.5881,-14.1665,-0.1269,1.4781,-0.0365,-1.3840
4681,-2.5570,-13.9295,-0.0192,1.4440,-0.0059,-1.3464
4688,-2.5043,-13.7236,0.0024,1.4258,0.0269,-1.3174
4697,-2.3990,-13.5679,0.1173,1.4011,0.0512,-1.2913
4705,-2.3296,-13.3788,0.1125,1.3936,0.0770,-1.2718
4713,-2.2242,-13.1178,0.1748,1.3856,0.0943,-1.2590
4721,-2.2601,-12.8401,0.1484,1.3797,0.1114,-1.2497
4728,-2.1452,-12.5600,0.1460,1.3811,0.1199,-1.2430
4737,-2.1380,-12.4355,0.1844,1.3875,0.1210,-1.2327
4745,-2.0686,-12.1171,0.2394,1.3917,0.1162,-1.2279
4753,-2.0111,-11.9638,0.1987,1.3936,0.1061,-1.2236
4761,-2.0470,-11.7483,0.1963,1.4021,0.1047,-1.2183
4769,-1.9034,-11.5544,0.2538,1.4125,0.0930,-1.2169
4776,-1.8675,-11.3557,0.2753,1.4184,0.0802,-1.2180
4785,-1.8699,-11.1498,0.1939,1.4189,0.0616,-1.2169
4793,-1.7741,-10.8936,0.1963,1.4290,0.0466,-1.2188
4801,-1.7502,-10.6973,0.2011,1.4296,0.0288,-1.2167
4809,-1.7669,-10.4890,0.1796,1.4261,0.0043,-1.2113
4816,-1.8076,-10.2472,0.1484,1.4181,-0.0192,-1.1977
4825,-1.8459,-9.9766,0.0599,1.3984,-0.0413,-1.1791
4833,-1.7813,-9.7133,0.1173,1.3800,-0.0690,-1.1514
4841,-1.7813,-9.4619,0.1245,1.3512,-0.0970,-1.1207
4849,-1.7573,-9.2967,0.0168,1.3131,-0.1202,-1.0880
4857,-1.7358,-9.0549,0.0718,1.2774,-0.1420,-1.0480
4865,-1.7478,-8.8921,-0.0599,1.2303,-0.1660,-1.0059
4873,-1.6544,-8.6383,-0.0790,1.1788,-0.1809,-0.9577
4881,-1.6616,-8.3917,-0.1245,1.1183,-0.2009,-0.9097
4889,-1.6520,-8.1786,-0.0527,1.0539,-0.2214,-0.8631
4897,-1.5275,-7.9631,-0.1604,0.9976,-0.2289,-0.8103
4904,-1.5562,-7.7333,-0.2322,0.9286,-0.2430,-0.7573
4913,-1.5467,-7.5369,-0.1006,0.8612,-0.2603,-0.7035
4921,-1.5993,-7.3885,-0.2035,0.7839,-0.2912,-0.6443
4929,-1.5060,-7.1682,-0.1556,0.7093,-0.3120,-0.5857
4937,-1.4700,-7.0366,-0.1293,0.6427,-0.3291,-0.5265
4945,-1.4437,-6.8761,-0.0886,0.5710,-0.3272,-0.4716
4953,-1.4174,-6.7612,-0.1987,0.4975,-0.3336,-0.4114
4961,-1.3934,-6.6511,-0.1149,0.4293,-0.3485,-0.3539
4969,-1.3647,-6.6056,-0.0910,0.3576,-0.3451,-0.2907
4977,-1.3503,-6.5074,-0.0862,0.2920,-0.3429,-0.2321
4985,-1.4126,-6.4045,-0.1460,0.2180,-0.3424,-0.1769
4993,-1.3264,-6.3351,-0.1532,0.1503,-0.3421,-0.1183
5001,-1.3288,-6.2991,-0.1915,0.0842,-0.3416,-0.0597
5009,-1.3288,-6.3015,-0.1365,0.0147,-0.3360,0.0003
5017,-1.3072,-6.2608,-0.1963,-0.0504,-0.3254,0.0584
5025,-1.3360,-6.2991,-0.2179,-0.1140,-0.3158,0.1186
5033,-1.3264,-6.3398,-0.1508,-0.1719,-0.3014,0.1807
5041,-1.3144,-6.4332,-0.1604,-0.2356,-0.2742,0.2409
5049,-1.3312,-6.4500,-0.1389,-0.3011,-0.2457,0.3030
5057,-1.4006,-6.5505,-0.2155,-0.3653,-0.2206,0.3712
5065,-1.3719,-6.6583,-0.2059,-0.4429,-0.1951,0.4375
5073,-1.4581,-6.7732,-0.1820,-0.5113,-0.1625,0.5065
5081,-1.4557,-6.8331,-0.1867,-0.5833,-0.1258,0.5774
5089,-1.4246,-6.9336,-0.1030,-0.6515,-0.0887,0.6531
5097,-1.5083,-7.1491,-0.1365,-0.7123,-0.0517,0.7194
5105,-1.5467,-7.2927,-0.1389,-0.7677,-0.0128,0.7871
5113,-1.5251,-7.5346,-0.1341,-0.8218,0.0328,0.8567
5121,-1.4868,-7.6327,-0.1437,-0.8703,0.0765,0.9222
5129,-1.4437,-7.8123,-0.1221,-0.9190,0.1223,0.9787
5137,-1.5395,-8.0206,-0.0096,-0.9673,0.1679,1.0309
5145,-1.5299,-8.2408,0.0599,-1.0128,0.2214,1.0781
5153,-1.6017,-8.4348,0.0263,-1.0555,0.2795,1.1210
5161,-1.5658,-8.6886,0.0239,-1.0930,0.3296,1.1655
5169,-1.5395,-8.8466,0.1221,-1.1274,0.3936,1.1977
5177,-1.5826,-9.0764,0.1963,-1.1604,0.4567,1.2351
5185,-1.6137,-9.3111,0.1963,-1.1828,0.5119,1.2660
5193,-1.6161,-9.5936,0.2203,-1.2044,0.5748,1.2905
5201,-1.6759,-9.8186,0.3639,-1.2135,0.6299,1.3105
5209,-1.6520,-10.0293,0.2658,-1.2332,0.6848,1.3243
5217,-1.7095,-10.2280,0.2298,-1.2412,0.7392,1.3392
5225,-1.7262,-10.4986,0.2897,-1.2516,0.7927,1.3454
5233,-1.7166,-10.7380,0.3256,-1.2609,0.8415,1.3512
5241,-1.7214,-10.9200,0.3639,-1.2721,0.8961,1.3486
5250,-1.7813,-11.1929,0.3232,-1.2812,0.9433,1.3480
5257,-1.7573,-11.3270,0.3663,-1.2873,0.9931,1.3470
5265,-1.8387,-11.5401,0.5028,-1.2926,1.0384,1.3422
5273,-1.8292,-11.7867,0.4310,-1.2958,1.0730,1.3320
5281,-1.8986,-11.9734,0.4190,-1.2931,1.1103,1.3249
5289,-1.9178,-12.1697,0.5363,-1.2905,1.1367,1.3177
5297,-1.9297,-12.3732,0.5507,-1.2846,1.1591,1.3078
5305,-1.9680,-12.5983,0.5746,-1.2804,1.1836,1.2891
5313,-2.0183,-12.8305,0.5052,-1.2814,1.2020,1.2734
5321,-2.0399,-12.9790,0.5435,-1.2849,1.2167,1.2561
5329,-2.1356,-13.2064,0.5124,-1.2969,1.2327,1.2385
5338,-2.1476,-13.4267,0.5746,-1.3089,1.2510,1.2273
5345,-2.2745,-13.5105,0.5195,-1.3318,1.2612,1.2153
5353,-2.2984,-13.6302,0.4836,-1.3590,1.2764,1.2087
5361,-2.3367,-13.8529,0.5124,-1.3947,1.2796,1.2129
5369,-2.3894,-14.0372,0.5243,-1.4394,1.2873,1.2172
5378,-2.4469,-14.2192,0.5291,-1.4866,1.2873,1.2343
5385,-2.5355,-14.3939,0.4357,-1.5412,1.2875,1.2516
5393,-2.5450,-14.5232,0.4357,-1.6054,1.2862,1.2724
5401,-2.6121,-14.7219,0.3615,-1.6787,1.2665,1.2961
5409,-2.6001,-14.9422,0.4238,-1.7557,1.2644,1.3219
5417,-2.6288,-15.0284,0.3663,-1.8261,1.2582,1.3507
5426,-2.7054,-15.1816,0.4429,-1.9044,1.2628,1.3765
5433,-2.6935,-15.3085,0.4381,-1.9819,1.2540,1.4011
5441,-2.7940,-15.4929,0.4884,-2.0627,1.2316,1.4301
5449,-2.7342,-15.6150,0.5387,-2.1288,1.2039,1.4512
5457,-2.7485,-15.7179,0.5602,-2.1831,1.1756,1.4671
5466,-2.7031,-15.8400,0.6369,-2.2298,1.1381,1.4746
5473,-2.7916,-15.9119,0.6608,-2.2780,1.1002,1.4746
5481,-2.6863,-16.0196,0.7997,-2.3102,1.0605,1.4743
5489,-2.6145,-16.0938,0.7829,-2.3369,1.0192,1.4669
5497,-2.6504,-16.1704,0.7374,-2.3553,0.9800,1.4549
5506,-2.6647,-16.2351,0.8140,-2.3710,0.9313,1.4384
5514,-2.5594,-16.2016,0.9194,-2.3720,0.8873,1.4245
5521,-2.5618,-16.1872,0.8380,-2.3742,0.8351,1.4085
5529,-2.6264,-16.1010,0.9457,-2.3659,0.7759,1.3952
5537,-2.6001,-16.0627,0.8906,-2.3537,0.7133,1.3749
5545,-2.5402,-15.9621,1.1061,-2.3315,0.6507,1.3606
5554,-2.4948,-15.7922,1.0846,-2.2969,0.5926,1.3416
5561,-2.4684,-15.6988,0.9409,-2.2641,0.5281,1.3169
5569,-2.4948,-15.5839,1.0223,-2.2250,0.4666,1.2987
5577,-2.4229,-15.4234,1.0199,-2.1783,0.4082,1.2732
5585,-2.3655,-15.3636,1.0008,-2.1373,0.3523,1.2497
5594,-2.3774,-15.2128,0.9313,-2.0939,0.3022,1.2233
5602,-2.3080,-15.0164,0.9888,-2.0478,0.2590,1.1969
5609,-2.2817,-14.9039,0.9290,-2.0035,0.2140,1.1711
5617,-2.3008,-14.7842,0.8739,-1.9646,0.1775,1.1450
5625,-2.2194,-14.6884,0.8045,-1.9332,0.1383,1.1231
5634,-2.2482,-14.5041,0.8452,-1.9063,0.1103,1.1077
5642,-2.2649,-14.3580,0.6776,-1.8844,0.0821,1.0954
5649,-2.2745,-14.2240,0.6871,-1.8692,0.0597,1.0842
5657,-2.2793,-14.0755,0.6871,-1.8535,0.0400,1.0805
5665,-2.2841,-13.9007,0.6297,-1.8479,0.0272,1.0813
5673,-2.2625,-13.6469,0.5794,-1.8485,0.0157,1.0856
5682,-2.2553,-13.5440,0.5914,-1.8437,0.0096,1.0944
5689,-2.1715,-13.3285,0.5339,-1.8429,0.0053,1.0989
5697,-2.1237,-13.1657,0.5411,-1.8402,0.0088,1.1010
5705,-2.1213,-12.9287,0.5411,-1.8429,0.0160,1.1101
5713,-2.0470,-12.7874,0.4549,-1.8373,0.0168,1.1103
5722,-1.9992,-12.6031,0.4405,-1.8282,0.0277,1.1106
5730,-2.0111,-12.4498,0.4741,-1.8250,0.0400,1.1109
5737,-1.9297,-12.2392,0.4908,-1.8258,0.0458,1.1090
5745,-1.8842,-12.0357,0.4932,-1.8149,0.0624,1.1072
5753,-1.8962,-11.8896,0.3735,-1.7994,0.0797,1.1008
5762,-1.8244,-11.6191,0.3879,-1.7898,0.0957,1.0912
5770,-1.7238,-11.4778,0.4070,-1.7698,0.1175,1.0837
5777,-1.7142,-11.2312,0.4884,-1.7467,0.1375,1.0669
5785,-1.6807,-10.9798,0.4860,-1.7205,0.1561,1.0587
5793,-1.6544,-10.8002,0.4932,-1.6883,0.1737,1.0397
5801,-1.6328,-10.5680,0.5100,-1.6467,0.1916,1.0214
5810,-1.5060,-10.3286,0.5004,-1.6020,0.2116,0.9995
5818,-1.5131,-10.0461,0.5076,-1.5556,0.2321,0.9737
5825,-1.4485,-9.8713,0.4980,-1.4989,0.2539,0.9417
5833,-1.3815,-9.6151,0.5626,-1.4426,0.2729,0.9164
5841,-1.3312,-9.3661,0.5219,-1.3853,0.2899,0.8788
5850,-1.3072,-9.2656,0.6057,-1.3211,0.3096,0.8431
5858,-1.2186,-8.9807,0.5243,-1.2516,0.3315,0.8068
5865,-1.2857,-8.8131,0.5914,-1.1900,0.3552,0.7669
5873,-1.1540,-8.6335,0.4860,-1.1146,0.3824,0.7272
5881,-1.1444,-8.4396,0.5674,-1.0456,0.3994,0.6845
5890,-1.1325,-8.3031,0.5746,-0.9723,0.4210,0.6384
5898,-1.1109,-8.1475,0.4621,-0.9001,0.4351,0.5899
5906,-1.1013,-7.9871,0.5363,-0.8354,0.4527,0.5454
5913,-0.9984,-7.8314,0.4621,-0.7597,0.4684,0.5039
5921,-1.0558,-7.7237,0.5243,-0.6864,0.4946,0.4530
5929,-1.0247,-7.6543,0.5459,-0.6123,0.5153,0.4056
5938,-1.0151,-7.5034,0.5315,-0.5380,0.5345,0.3621
5946,-0.9601,-7.4220,0.6009,-0.4602,0.5526,0.3166
5953,-0.9768,-7.3047,0.4741,-0.3869,0.5622,0.2697
5961,-0.9313,-7.2951,0.5243,-0.3131,0.5724,0.2257
5969,-0.8978,-7.2113,0.5004,-0.2414,0.5798,0.1828
5978,-0.9649,-7.0844,0.5435,-0.1636,0.5822,0.1380
5986,-0.9266,-7.0557,0.5291,-0.0909,0.5870,0.0951
5994,-0.8978,-7.0366,0.5315,-0.0189,0.5857,0.0546
6001,-0.9888,-7.0390,0.4788,0.0528,0.5790,0.0096
6009,-0.9577,-7.0701,0.5650,0.1258,0.5742,-0.0354
6018,-0.9337,-7.0653,0.5171,0.2004,0.5585,-0.0727
6026,-0.9625,-7.1156,0.5267,0.2771,0.5436,-0.1218
6034,-0.9266,-7.1802,0.4932,0.3533,0.5201,-0.1636
6041,-0.9553,-7.1467,0.5746,0.4301,0.4922,-0.2036
6049,-0.9984,-7.2856,0.5650,0.5071,0.4602,-0.2502
6057,-1.0056,-7.3622,0.5674,0.5822,0.4175,-0.2939
6066,-1.0487,-7.4244,0.5004,0.6691,0.3741,-0.3381
6074,-1.0295,-7.5274,0.6632,0.7581,0.3283,-0.3845
6082,-1.0223,-7.6447,0.6297,0.8434,0.2638,-0.4269
6089,-1.0702,-7.7716,0.5148,0.9241,0.2097,-0.4652
6097,-1.1396,-7.9104,0.5674,1.0099,0.1524,-0.5089
6106,-1.1540,-8.0589,0.6129,1.0877,0.0855,-0.5441
6114,-1.1660,-8.1547,0.5291,1.1652,0.0213,-0.5844
6122,-1.2689,-8.4539,0.4908,1.2454,-0.0448,-0.6198
6129,-1.2905,-8.6431,0.4621,1.3185,-0.1085,-0.6619
6137,-1.3695,-8.7963,0.4429,1.3861,-0.1764,-0.6992
6146,-1.3072,-9.0525,0.4094,1.4498,-0.2430,-0.7376
6154,-1.3791,-9.2871,0.3400,1.5058,-0.3112,-0.7783
6162,-1.4437,-9.5217,0.3591,1.5657,-0.3802,-0.8106
6170,-1.4988,-9.8210,0.3783,1.6148,-0.4471,-0.8482
6177,-1.5514,-9.9982,0.3136,1.6870,-0.5145,-0.8804
6185,-1.6783,-10.2855,0.3735,1.6790,-0.5870,-0.9110
6194,-1.7334,-10.5082,0.3136,1.7395,-0.6536,-0.9414
6202,-1.7095,-10.7595,0.2705,1.7810,-0.7234,-0.9681
6210,-1.8459,-10.9726,0.2514,1.7965,-0.7919,-0.9896
6217,-1.8747,-11.2168,0.2155,1.8271,-0.8529,-1.0078
6225,-1.9824,-11.3653,0.1245,1.8381,-0.9134,-1.0227
6234,-2.0566,-11.5017,0.1173,1.8431,-0.9691,-1.0347
6242,-2.0039,-11.7603,0.1365,1.8386,-1.0200,-1.0472
6250,-2.1213,-11.9542,0.1149,1.8319,-1.0728,-1.0467
6257,-2.1883,-12.0572,0.0694,1.8151,-1.1151,-1.0488
6265,-2.1763,-12.2368,-0.0335,1.7880,-1.1469,-1.0472
6274,-2.1979,-12.3661,-0.0168,1.7648,-1.1860,-1.0432
6282,-2.2553,-12.5983,-0.1437,1.7427,-1.2132,-1.0427
6290,-2.3008,-12.7443,-0.2107,1.7027,-1.2335,-1.0435
6298,-2.2984,-12.8736,-0.1125,1.6654,-1.2465,-1.0419
6305,-2.3080,-13.0316,-0.1101,1.6257,-1.2588,-1.0421
6313,-2.2482,-13.1322,-0.1006,1.5753,-1.2673,-1.0443
6322,-2.3176,-13.2974,-0.1053,1.5452,-1.2700,-1.0539
6330,-2.3559,-13.5512,-0.0622,1.5175,-1.2761,-1.0624
6338,-2.3296,-13.6039,-0.0575,1.4970,-1.2772,-1.0725
6345,-2.3607,-13.7762,-0.0120,1.4855,-1.2798,-1.0928
6353,-2.3463,-13.9247,0.0144,1.4810,-1.2806,-1.1170
6362,-2.3248,-14.0899,0.1006,1.4871,-1.2745,-1.1423
6370,-2.3607,-14.1306,0.1604,1.5068,-1.2705,-1.1727
6378,-2.3774,-14.3365,0.2035,1.5255,-1.2660,-1.2044
6386,-2.3990,-14.4346,0.3017,1.5527,-1.2609,-1.2340
6393,-2.3655,-14.5280,0.1676,1.5761,-1.2428,-1.2718
6402,-2.4086,-14.6334,0.2203,1.5932,-1.2273,-1.3094
6410,-2.4517,-14.7507,0.2155,1.6169,-1.2121,-1.3446
6418,-2.4445,-14.9207,0.0958,1.6689,-1.1927,-1.3792
6426,-2.4876,-14.9662,0.2394,1.6875,-1.1703,-1.4197
6433,-2.4588,-15.0380,0.1891,1.6782,-1.1437,-1.4573
6441,-2.4732,-15.1050,0.1987,1.6835,-1.1117,-1.5026
6450,-2.4780,-15.1553,0.1269,1.7517,-1.0808,-1.5396
6458,-2.5187,-15.1529,0.1963,1.7722,-1.0467,-1.5756
6466,-2.5977,-15.1337,0.1437,1.7936,-1.0099,-1.6092
6474,-2.4852,-15.2056,0.1891,1.8098,-0.9755,-1.6403
6481,-2.6121,-15.2247,0.0982,1.8330,-0.9326,-1.6675
6490,-2.6504,-15.2726,0.2035,1.8575,-0.8924,-1.6875
6498,-2.6576,-15.1984,0.1173,1.8716,-0.8495,-1.7019
6506,-2.6815,-15.2295,0.1030,1.8764,-0.8068,-1.7094
6514,-2.6217,-15.1146,0.1006,1.8834,-0.7637,-1.7118
6521,-2.6863,-15.0954,0.0287,1.8791,-0.7141,-1.7080
6530,-2.6863,-14.9805,0.0144,1.8786,-0.6731,-1.6939
6538,-2.7198,-14.8895,-0.1053,1.8604,-0.6278,-1.6737
6546,-2.7438,-14.7459,-0.0359,1.8402,-0.5828,-1.6497
6554,-2.7461,-14.6166,-0.0646,1.8170,-0.5375,-1.6230
6562,-2.6959,-14.5304,-0.1532,1.7890,-0.4951,-1.5910
6569,-2.7150,-14.4035,-0.0431,1.7456,-0.4527,-1.5529
6578,-2.6480,-14.2120,-0.1077,1.6878,-0.4080,-1.5167
6586,-2.6767,-14.1545,-0.1437,1.6675,-0.3584,-1.4810
6594,-2.5714,-13.9869,-0.0982,1.6515,-0.3128,-1.4413
6602,-2.5498,-13.8624,-0.1891,1.5974,-0.2795,-1.4013
6609,-2.5259,-13.7068,-0.0527,1.5529,-0.2438,-1.3638
6618,-2.4924,-13.5751,-0.0790,1.5090,-0.2113,-1.3355
6626,-2.4588,-13.3501,-0.0958,1.4762,-0.1724,-1.3097
6634,-2.3822,-13.2663,-0.0934,1.4472,-0.1407,-1.2838
6642,-2.3822,-13.0340,-0.0551,1.4208,-0.1180,-1.2580
6650,-2.3846,-12.9215,0.0287,1.4005,-0.1007,-1.2271
6658,-2.3224,-12.7084,0.1173,1.3760,-0.0829,-1.2012
6666,-2.2314,-12.5672,0.0335,1.3571,-0.0677,-1.1823
6674,-2.2122,-12.4379,0.0838,1.3408,-0.0520,-1.1540
6682,-2.1811,-12.2463,0.0215,1.3211,-0.0488,-1.1381
6690,-2.1069,-12.0500,0.1053,1.3006,-0.0421,-1.1197
6697,-2.1093,-11.8585,0.0694,1.2846,-0.0376,-1.1021
6706,-2.0231,-11.6693,0.0982,1.2673,-0.0349,-1.0909
6714,-2.0662,-11.5377,0.0958,1.2492,-0.0376,-1.0765
6722,-1.9561,-11.3078,0.1556,1.2327,-0.0378,-1.0624
6730,-1.9369,-11.1642,0.0527,1.2191,-0.0482,-1.0499
6738,-1.9225,-10.9918,0.1197,1.2073,-0.0533,-1.0357
6746,-1.9201,-10.8026,0.1508,1.1900,-0.0616,-1.0120
6754,-1.9369,-10.5776,0.2059,1.1767,-0.0773,-1.0051
6762,-1.8148,-10.3741,0.1125,1.1610,-0.0818,-0.9870
6770,-1.7885,-10.2711,0.1508,1.1474,-0.0935,-0.9713
6778,-1.7861,-10.0748,0.0694,1.1277,-0.1055,-0.9513
6786,-1.7214,-9.8881,0.0742,1.1050,-0.1183,-0.9313
6794,-1.7717,-9.6630,0.0742,1.0848,-0.1282,-0.9110
6802,-1.6927,-9.5361,0.0383,1.0664,-0.1508,-0.8844
6810,-1.7119,-9.3350,0.0144,1.0365,-0.1673,-0.8569
6818,-1.6831,-9.2081,-0.0144,1.0080,-0.1801,-0.8244
6825,-1.7142,-8.9950,0.0215,0.9713,-0.1958,-0.7901
6834,-1.6233,-8.8442,0.0263,0.9369,-0.2078,-0.7576
6842,-1.6305,-8.6886,-0.0072,0.8966,-0.2161,-0.7189
6850,-1.6735,-8.6191,0.0335,0.8527,-0.2297,-0.6795
6858,-1.6137,-8.4204,-0.0622,0.8045,-0.2390,-0.6355
6866,-1.6257,-8.2504,-0.0311,0.7536,-0.2483,-0.5953
6874,-1.5921,-8.1427,-0.0335,0.7040,-0.2561,-0.5489
6882,-1.5538,-7.9895,-0.0455,0.6499,-0.2622,-0.5052
6890,-1.5323,-7.9033,-0.0838,0.5982,-0.2737,-0.4580
6898,-1.5275,-7.7979,-0.0838,0.5423,-0.2739,-0.4101
6906,-1.5060,-7.7452,-0.1149,0.4879,-0.2806,-0.3603
6914,-1.4940,-7.5992,-0.1053,0.4250,-0.2854,-0.3112
6922,-1.4653,-7.5010,-0.0718,0.3722,-0.2793,-0.2646
6930,-1.4724,-7.4579,-0.1053,0.3088,-0.2761,-0.2084
6938,-1.5730,-7.3334,-0.1030,0.2507,-0.2689,-0.1593
6946,-1.5012,-7.2856,-0.1724,0.1881,-0.2654,-0.1106
6955,-1.4581,-7.2065,-0.1365,0.1330,-0.2582,-0.0597
6962,-1.4317,-7.1994,-0.0742,0.0765,-0.2433,-0.0088
6970,-1.4174,-7.1922,-0.0670,0.0197,-0.2353,0.0442
6978,-1.4581,-7.2065,-0.1413,-0.0333,-0.2281,0.0983
6986,-1.4892,-7.2568,-0.0431,-0.0887,-0.2097,0.1519
6994,-1.4078,-7.2927,-0.0096,-0.1364,-0.1889,0.2041
7002,-1.4485,-7.3071,-0.1293,-0.1833,-0.1628,0.2555
7010,-1.4222,-7.3789,-0.0742,-0.2395,-0.1364,0.3064
7018,-1.4988,-7.4244,-0.1101,-0.2939,-0.1087,0.3560
7026,-1.4509,-7.4148,-0.1030,-0.3469,-0.0789,0.4050
7034,-1.5083,-7.5417,-0.1030,-0.4061,-0.0464,0.4588
7043,-1.4724,-7.5920,-0.0072,-0.4549,-0.0168,0.5108
7050,-1.5730,-7.6614,0.0646,-0.5073,0.0112,0.5630
7058,-1.5634,-7.8123,-0.0048,-0.5534,0.0520,0.6171
7066,-1.5107,-7.9224,0.0622,-0.5934,0.0882,0.6654
7074,-1.5131,-8.0613,0.0192,-0.6371,0.1228,0.7168
7083,-1.5754,-8.2480,0.0479,-0.6710,0.1607,0.7581
7090,-1.5682,-8.3869,0.0886,-0.7064,0.1927,0.8021
7098,-1.5658,-8.4707,0.0359,-0.7466,0.2297,0.8410
7106,-1.6352,-8.6742,0.0239,-0.7786,0.2683,0.8769
7114,-1.5323,-8.8083,0.0431,-0.8194,0.3059,0.9030
7122,-1.5945,-8.9519,0.0431,-0.8532,0.3475,0.9348
7131,-1.5945,-9.0597,0.0934,-0.8868,0.3853,0.9662
7138,-1.6735,-9.2895,0.0551,-0.9145,0.4258,0.9896
7146,-1.6664,-9.4355,0.1460,-0.9406,0.4594,1.0200
7154,-1.6185,-9.6055,0.2801,-0.9577,0.5036,1.0483
7162,-1.6424,-9.8474,0.1724,-0.9808,0.5468,1.0717
7171,-1.6568,-10.0197,0.2634,-1.0030,0.5891,1.0920
7178,-1.7142,-10.1754,0.1915,-1.0275,0.6347,1.1080
7186,-1.7621,-10.4196,0.2466,-1.0464,0.6747,1.1269
7194,-1.7669,-10.4507,0.2993,-1.0722,0.7189,1.1383
7202,-1.7933,-10.6422,0.2729,-1.0880,0.7546,1.1495
7211,-1.8411,-10.8170,0.2897,-1.1095,0.7855,1.1639
7219,-1.8531,-10.9942,0.3160,-1.1245,0.8204,1.1764
7226,-1.8387,-11.1402,0.3567,-1.1383,0.8460,1.1908
7234,-1.9201,-11.3796,0.3424,-1.1498,0.8807,1.1972
7242,-1.9154,-11.5233,0.4262,-1.1583,0.9078,1.2012
7250,-1.9249,-11.6669,0.4357,-1.1682,0.9326,1.2081
7259,-1.9489,-11.8274,0.3567,-1.1815,0.9585,1.2103
7266,-1.9992,-11.9758,0.4477,-1.1954,0.9763,1.2068
7274,-2.0039,-12.1841,0.3974,-1.2148,0.9963,1.2060
7282,-2.0231,-12.3445,0.4621,-1.2332,1.0048,1.2047
7290,-2.0279,-12.5265,0.4477,-1.2569,1.0179,1.2031
7299,-2.0231,-12.6869,0.4693,-1.2761,1.0301,1.2044
7307,-2.1524,-12.7779,0.4238,-1.2998,1.0368,1.2089
7314,-2.1787,-12.9359,0.4070,-1.3259,1.0443,1.2119
7322,-2.2122,-13.0269,0.4525,-1.3547,1.0536,1.2196
7330,-2.2913,-13.2567,0.3687,-1.3859,1.0674,1.2273
7339,-2.3008,-13.3142,0.4381,-1.4186,1.0725,1.2300
7347,-2.3104,-13.5416,0.3711,-1.4575,1.0757,1.2401
7354,-2.2649,-13.6278,0.4405,-1.4975,1.0749,1.2473
7362,-2.3679,-13.7762,0.3879,-1.5402,1.0653,1.2532
7370,-2.4373,-13.8672,0.3711,-1.5860,1.0525,1.2654
7378,-2.4301,-13.9199,0.5315,-1.6289,1.0435,1.2729
7387,-2.3583,-14.0516,0.4238,-1.6667,1.0301,1.2841
7394,-2.4277,-14.0923,0.5555,-1.7083,1.0096,1.2915
7402,-2.4134,-14.2479,0.4932,-1.7467,0.9926,1.2939
7410,-2.4205,-14.3125,0.5339,-1.7770,0.9697,1.3054
7418,-2.4756,-14.3125,0.5962,-1.8087,0.9430,1.3003
7427,-2.4349,-14.4538,0.5100,-1.8367,0.9166,1.3057
7435,-2.4804,-14.4035,0.5866,-1.8612,0.8865,1.3038
7442,-2.4900,-14.5208,0.6608,-1.8866,0.8519,1.2947
7450,-2.4229,-14.4921,0.6057,-1.9025,0.8143,1.2923
7458,-2.4110,-14.5424,0.7063,-1.9169,0.7746,1.2878
7467,-2.4205,-14.5448,0.5770,-1.9273,0.7344,1.2830
7475,-2.3415,-14.5256,0.6919,-1.9380,0.6901,1.2785
7482,-2.4397,-14.4514,0.7135,-1.9430,0.6496,1.2729
7490,-2.3559,-14.4777,0.7805,-1.9406,0.6070,1.2662
7498,-2.2960,-14.4658,0.7494,-1.9327,0.5668,1.2542
7506,-2.3391,-14.3700,0.7853,-1.9271,0.5249,1.2422
7515,-2.3703,-14.3245,0.8739,-1.9105,0.4735,1.2316
7523,-2.2984,-14.2575,0.7039,-1.8969,0.4287,1.2215
7530,-2.2721,-14.2048,0.7015,-1.8823,0.3874,1.2073
7538,-2.2817,-14.1569,0.7398,-1.8652,0.3515,1.1919
7546,-2.1907,-14.0252,0.7183,-1.8445,0.3184,1.1764
7555,-2.1620,-13.9893,0.7230,-1.8231,0.2883,1.1599
7563,-2.2266,-13.8481,0.7135,-1.7970,0.2553,1.1487
7570,-2.1715,-13.7260,0.7350,-1.7784,0.2238,1.1335
7578,-2.1165,-13.6589,0.7159,-1.7573,0.1990,1.1213
7586,-2.1428,-13.5081,0.6991,-1.7373,0.1769,1.1058
7595,-2.0830,-13.3405,0.7661,-1.7155,0.1532,1.0904
7603,-2.1165,-13.1777,0.6129,-1.6910,0.1338,1.0794
7611,-2.1021,-13.0699,0.5914,-1.6787,0.1148,1.0658
7618,-2.0494,-12.9287,0.6847,-1.6606,0.1026,1.0539
7626,-2.0375,-12.8521,0.5148,-1.6425,0.0957,1.0445
7634,-2.0279,-12.6605,0.5818,-1.6276,0.0938,1.0392
7643,-1.9824,-12.5720,0.4717,-1.6140,0.0853,1.0291
7651,-1.9632,-12.4451,0.5387,-1.5966,0.0834,1.0219
7658,-1.9680,-12.3134,0.5004,-1.5839,0.0885,1.0128
7666,-1.9010,-12.1673,0.5028,-1.5735,0.0834,1.0022
7674,-1.8890,-11.9279,0.5243,-1.5588,0.0869,0.9934
7683,-1.8627,-11.7699,0.4860,-1.5383,0.0914,0.9832
7691,-1.8292,-11.5784,0.4860,-1.5252,0.0949,0.9734
7699,-1.8148,-11.4515,0.4812,-1.5036,0.1114,0.9625
7706,-1.7765,-11.2791,0.4693,-1.4853,0.1234,0.9491
7714,-1.6568,-11.0516,0.4046,-1.4655,0.1351,0.9342
7723,-1.7382,-11.0157,0.4453,-1.4429,0.1508,0.9254
7731,-1.6400,-10.7595,0.4477,-1.4160,0.1671,0.9102
7739,-1.6233,-10.6159,0.4429,-1.3875,0.1785,0.8934
7746,-1.5682,-10.3884,0.4166,-1.3547,0.1958,0.8751
7754,-1.5682,-10.3166,0.5004,-1.3243,0.2113,0.8556
7762,-1.4964,-10.1155,0.5124,-1.2955,0.2270,0.8332
7771,-1.5131,-9.9096,0.5291,-1.2473,0.2435,0.8098
7779,-1.4389,-9.7995,0.4357,-1.2119,0.2606,0.7858
7787,-1.4461,-9.6462,0.4764,-1.1687,0.2742,0.7615
7794,-1.5107,-9.5648,0.4262,-1.1285,0.2920,0.7328
7802,-1.3910,-9.2943,0.5315,-1.0784,0.3115,0.7011
7811,-1.3240,-9.1913,0.4956,-1.0315,0.3222,0.6704
7819,-1.3336,-9.0597,0.4549,-0.9838,0.3384,0.6387
7827,-1.2977,-9.0285,0.5148,-0.9276,0.3536,0.6041
7834,-1.2833,-8.8131,0.4884,-0.8684,0.3675,0.5678
7842,-1.2833,-8.6359,0.4405,-0.8170,0.3832,0.5329
7851,-1.1995,-8.5401,0.5004,-0.7578,0.3944,0.4908
7859,-1.2139,-8.4156,0.5004,-0.6997,0.4042,0.4551
7867,-1.1301,-8.2863,0.5674,-0.6355,0.4138,0.4125
7875,-1.1396,-8.1930,0.4310,-0.5748,0.4229,0.3728
7882,-1.1444,-8.1499,0.5195,-0.5111,0.4295,0.3323
7890,-1.1061,-8.0278,0.4214,-0.4455,0.4346,0.2902
7899,-1.1157,-8.0086,0.4693,-0.3842,0.4397,0.2521
7907,-1.1133,-7.9033,0.5507,-0.3214,0.4439,0.2102
7915,-1.0199,-7.8338,0.5363,-0.2526,0.4431,0.1676
7922,-1.0702,-7.7931,0.5483,-0.1884,0.4418,0.1287
7930,-1.0319,-7.7309,0.4980,-0.1202,0.4418,0.0871
7939,-1.0702,-7.7428,0.6057,-0.0565,0.4397,0.0442
7947,-1.0391,-7.6926,0.5171,0.0096,0.4298,0.0048
7955,-1.0558,-7.8314,0.5722,0.0810,0.4218,-0.0378
7963,-1.0534,-7.7644,0.4405,0.1418,0.4037,-0.0815
7970,-1.0439,-7.7859,0.4788,0.2108,0.3866,-0.1218
7979,-1.0630,-7.8314,0.4525,0.2782,0.3648,-0.1639
7987,-1.1037,-7.8817,0.4597,0.3456,0.3421,-0.2025
7995,-1.1372,-7.9703,0.5459,0.4077,0.3131,-0.2422
8003,-1.1636,-7.9368,0.5746,0.4740,0.2785,-0.2856
8010,-1.1492,-8.0948,0.6009,0.5407,0.2438,-0.3275
8018,-1.1827,-8.1307,0.4908,0.6081,0.1990,-0.3659
8027,-1.1277,-8.2456,0.5578,0.6723,0.1508,-0.4032
8035,-1.1947,-8.3582,0.5555,0.7408,0.1077,-0.4383
8043,-1.2546,-8.4036,0.5028,0.8018,0.0610,-0.4722
8051,-1.2713,-8.5784,0.4836,0.8641,0.0155,-0.5143
8058,-1.3096,-8.6862,0.5171,0.9180,-0.0376,-0.5412
8067,-1.3024,-8.8059,0.4238,0.9734,-0.0861,-0.5790
8075,-1.2929,-8.9016,0.4214,1.0277,-0.1314,-0.6081
8083,-1.4222,-9.1219,0.4405,1.0744,-0.1833,-0.6414
8091,-1.4389,-9.2703,0.3472,1.1221,-0.2329,-0.6726
8098,-1.4772,-9.3996,0.3879,1.1663,-0.2814,-0.7043
8107,-1.4557,-9.5984,0.3280,1.2121,-0.3243,-0.7290
8115,-1.5514,-9.7516,0.3184,1.2486,-0.3733,-0.7584
8123,-1.6281,-9.8928,0.2203,1.2913,-0.4191,-0.7837
8131,-1.6712,-10.0963,0.2466,1.3243,-0.4642,-0.8108
8138,-1.5969,-10.2017,0.2059,1.3451,-0.5119,-0.8332
8146,-1.6903,-10.3884,0.2658,1.3739,-0.5497,-0.8561
8155,-1.7717,-10.5417,0.3041,1.3949,-0.5982,-0.8764
8163,-1.7813,-10.7069,0.2538,1.4109,-0.6462,-0.8889
8171,-1.8411,-10.8290,0.1676,1.4253,-0.6923,-0.9006
8179,-1.8507,-10.9822,0.2035,1.4389,-0.7304,-0.9110
8186,-1.9225,-11.1785,0.1437,1.4533,-0.7727,-0.9185
8195,-1.8914,-11.2815,0.0862,1.4578,-0.8098,-0.9305
8203,-1.9920,-11.4156,0.1820,1.4589,-0.8396,-0.9361
8211,-1.9417,-11.5927,0.0790,1.4658,-0.8737,-0.9494
8219,-2.0063,-11.7316,0.2035,1.4565,-0.8993,-0.9542
8226,-2.0734,-11.9016,0.0383,1.4538,-0.9252,-0.9611
8235,-2.0399,-11.9638,0.0263,1.4442,-0.9475,-0.9707
8243,-2.0518,-12.1697,-0.0599,1.4325,-0.9643,-0.9806
8251,-2.1524,-12.3206,0.0718,1.4210,-0.9819,-0.9891
8259,-2.2003,-12.4355,0.0838,1.4149,-0.9899,-1.0022
8267,-2.1165,-12.5743,-0.0144,1.4115,-1.0078,-1.0160
8274,-2.2242,-12.6677,0.1317,1.4056,-1.0150,-1.0288
8283,-2.1500,-12.8233,0.0622,1.4024,-1.0280,-1.0472
8291,-2.2266,-12.9359,0.1652,1.4091,-1.0243,-1.0635
8299,-2.2410,-13.0005,0.1580,1.4138,-1.0256,-1.0805
8307,-2.2218,-13.1753,0.1628,1.4208,-1.0299,-1.1072
8314,-2.2649,-13.2854,0.1437,1.4346,-1.0269,-1.1277
8323,-2.2960,-13.3261,0.1580,1.4418,-1.0214,-1.1503
8331,-2.1955,-13.4458,0.2179,1.4578,-1.0158,-1.1716
8339,-2.2745,-13.4746,0.2107,1.4661,-1.0104,-1.2041
8347,-2.3367,-13.5632,0.1915,1.4815,-0.9958,-1.2284
8355,-2.3080,-13.6661,0.1867,1.4978,-0.9880,-1.2518
8363,-2.2984,-13.7547,0.1820,1.5090,-0.9675,-1.2774
8371,-2.2697,-13.7738,0.1006,1.5242,-0.9438,-1.3011
8379,-2.3846,-13.7810,0.1724,1.5300,-0.9244,-1.3217
8387,-2.3248,-13.8145,0.1748,1.5449,-0.8998,-1.3430
8395,-2.3272,-13.8529,0.1413,1.5561,-0.8791,-1.3638
8402,-2.3918,-13.8744,0.1676,1.5599,-0.8513,-1.3827
8411,-2.4205,-13.9103,0.0814,1.5729,-0.8266,-1.3957
8419,-2.4181,-13.9390,0.1748,1.5889,-0.7911,-1.4112
8427,-2.3870,-13.9630,0.0814,1.5945,-0.7663,-1.4168
8435,-2.4205,-13.9223,0.0766,1.6004,-0.7378,-1.4253
8443,-2.4732,-13.8936,0.0838,1.6134,-0.7053,-1.4272
8451,-2.3966,-13.8912,0.1365,1.5964,-0.6755,-1.4288
8459,-2.4636,-13.8768,0.0838,1.6134,-0.6422,-1.4264
8467,-2.4493,-13.8169,0.0287,1.6081,-0.6043,-1.4210
8475,-2.4157,-13.7738,0.0742,1.5972,-0.5724,-1.4080
8483,-2.4397,-13.6972,0.1006,1.5857,-0.5396,-1.3928
8491,-2.4828,-13.6853,0.0455,1.5724,-0.5017,-1.3811
8499,-2.4924,-13.5536,-0.0120,1.5652,-0.4658,-1.3646
8507,-2.4349,-13.4937,0.0168,1.5383,-0.4319,-1.3456
8515,-2.4517,-13.4363,-0.0551,1.5178,-0.4056,-1.3251
8523,-2.4229,-13.2447,-0.0168,1.4938,-0.3744,-1.3030
8531,-2.3966,-13.1537,-0.0599,1.4722,-0.3413,-1.2801
8539,-2.3822,-13.0484,-0.0958,1.4482,-0.3131,-1.2569
8547,-2.3535,-12.9167,-0.0168,1.4256,-0.2838,-1.2329
8555,-2.3391,-12.7779,-0.0239,1.4051,-0.2553,-1.2108
8563,-2.2649,-12.7348,-0.0551,1.3843,-0.2337,-1.1852
8571,-2.2984,-12.6222,0.0096,1.3611,-0.2124,-1.1658
8579,-2.2410,-12.4522,0.0024,1.3430,-0.1953,-1.1429
8587,-2.1739,-12.3206,0.0072,1.3174,-0.1721,-1.1258
8595,-2.1380,-12.2128,-0.0335,1.3003,-0.1580,-1.1069
8603,-2.1117,-12.0189,0.0694,1.2772,-0.1402,-1.0922
8611,-2.1715,-11.9183,0.0144,1.2585,-0.1282,-1.0698
8620,-2.1213,-11.7412,0.0096,1.2364,-0.1210,-1.0515
8627,-2.0423,-11.5616,0.0431,1.2191,-0.1114,-1.0280
8635,-2.0183,-11.4970,0.0455,1.1999,-0.1021,-1.0112
8643,-2.0853,-11.3222,0.0694,1.1815,-0.0965,-0.9886
8651,-2.0470,-11.2408,0.1173,1.1626,-0.0959,-0.9683
8659,-1.9752,-11.0636,0.1101,1.1423,-0.1002,-0.9478
8667,-1.9513,-10.9511,0.0622,1.1194,-0.0970,-0.9276
8675,-1.9824,-10.7763,0.0646,1.1008,-0.0949,-0.9118
8683,-1.8699,-10.6446,0.1053,1.0773,-0.0986,-0.8945
8691,-1.8699,-10.4866,0.0670,1.0589,-0.0997,-0.8756
8699,-1.8675,-10.3262,0.1844,1.0405,-0.1053,-0.8551
8707,-1.8555,-10.2615,0.1389,1.0107,-0.1090,-0.8380
8715,-1.7454,-10.0963,0.0670,0.9899,-0.1135,-0.8170
8723,-1.8004,-9.9168,0.1221,0.9678,-0.1167,-0.7933
8731,-1.7861,-9.7420,0.0670,0.9454,-0.1223,-0.7653
8739,-1.7454,-9.6414,0.1125,0.9188,-0.1271,-0.7461
8748,-1.7717,-9.5241,0.0407,0.8918,-0.1346,-0.7189
8755,-1.6903,-9.3972,0.0910,0.8644,-0.1378,-0.6931
8763,-1.6831,-9.2775,0.0982,0.8359,-0.1482,-0.6648
8771,-1.6879,-9.1219,0.1053,0.8047,-0.1575,-0.6384
8779,-1.6855,-9.0070,-0.0311,0.7685,-0.1660,-0.6027
8787,-1.6520,-8.9040,0.0575,0.7306,-0.1732,-0.5705
8795,-1.6472,-8.8346,0.0215,0.6928,-0.1833,-0.5359
8803,-1.6472,-8.6239,-0.0168,0.6539,-0.1868,-0.4970
8811,-1.6400,-8.5329,0.0192,0.6145,-0.1935,-0.4615
8819,-1.5874,-8.4443,0.0287,0.5766,-0.1990,-0.4229
8827,-1.6065,-8.3558,0.0694,0.5303,-0.2025,-0.3845
8836,-1.6281,-8.2863,0.0024,0.4828,-0.2054,-0.3448
8843,-1.5993,-8.1954,0.0000,0.4415,-0.2068,-0.3030
8851,-1.5299,-8.0852,-0.0431,0.3933,-0.2062,-0.2627
8859,-1.4772,-8.0158,-0.0766,0.3480,-0.2100,-0.2220
8867,-1.5993,-7.9918,-0.0527,0.3022,-0.2062,-0.1817
8876,-1.5371,-7.9200,-0.0192,0.2561,-0.2060,-0.1380
8883,-1.5634,-7.8362,-0.0287,0.2092,-0.1998,-0.0943
8891,-1.5778,-7.8793,0.0718,0.1639,-0.1985,-0.0520
8899,-1.4964,-7.8769,-0.0407,0.1199,-0.1919,-0.0101
8907,-1.5443,-7.8290,-0.0599,0.0775,-0.1841,0.0346
8915,-1.5155,-7.8506,-0.0048,0.0338,-0.1692,0.0773
8924,-1.5036,-7.7955,-0.0383,-0.0123,-0.1559,0.1220
8931,-1.5012,-7.7955,-0.0072,-0.0594,-0.1348,0.1649
8939,-1.4844,-7.8673,0.0455,-0.1050,-0.1204,0.2070
8947,-1.5490,-7.9128,-0.0622,-0.1487,-0.0925,0.2518
8955,-1.5371,-7.8458,0.0575,-0.1980,-0.0826,0.2942
8964,-1.5203,-7.8889,0.0120,-0.2430,-0.0570,0.3432
8971,-1.5347,-8.0086,-0.0168,-0.2862,-0.0330,0.3898
8979,-1.5443,-8.0948,-0.0120,-0.3269,-0.0032,0.4351
8987,-1.5802,-8.2073,-0.0359,-0.3749,0.0290,0.4810
8995,-1.5443,-8.3031,-0.0694,-0.4141,0.0573,0.5199
9004,-1.6041,-8.3342,0.0048,-0.4575,0.0935,0.5620
9012,-1.5993,-8.3989,0.0024,-0.4938,0.1228,0.5993
9019,-1.5730,-8.5162,0.0239,-0.5337,0.1551,0.6374
9027,-1.5299,-8.7077,0.0383,-0.5716,0.1855,0.6757
9035,-1.5826,-8.7005,0.1125,-0.6027,0.2225,0.7101
9043,-1.5945,-8.7676,0.1197,-0.6390,0.2611,0.7448
9052,-1.5850,-8.9399,0.1460,-0.6627,0.2952,0.7791
9059,-1.5730,-9.0477,0.1245,-0.6939,0.3275,0.8031
9067,-1.6185,-9.1698,0.1365,-0.7248,0.3637,0.8308
9075,-1.6352,-9.3996,0.1245,-0.7514,0.3960,0.8567
9083,-1.6305,-9.5217,0.0575,-0.7807,0.4303,0.8780
9092,-1.6376,-9.6007,0.2179,-0.8074,0.4658,0.8964
9100,-1.6951,-9.7205,0.1484,-0.8335,0.4972,0.9172
9107,-1.7047,-9.9264,0.2011,-0.8623,0.5287,0.9411
9115,-1.6879,-9.9551,0.2658,-0.8863,0.5598,0.9553
9123,-1.7478,-10.1586,0.2658,-0.9028,0.5889,0.9734
9132,-1.7023,-10.2687,0.1820,-0.9270,0.6169,0.9934
9140,-1.7717,-10.4172,0.2945,-0.9467,0.6432,1.0054
9147,-1.7573,-10.6159,0.3280,-0.9593,0.6744,1.0248
9155,-1.7885,-10.7524,0.2658,-0.9753,0.6891,1.0320
9163,-1.8316,-10.9056,0.3639,-0.9942,0.7125,1.0435
9171,-1.8148,-11.0301,0.3256,-1.0123,0.7330,1.0485
9180,-1.9058,-11.1354,0.2155,-1.0328,0.7517,1.0536
9188,-1.8771,-11.2599,0.3879,-1.0496,0.7727,1.0648
9195,-1.9369,-11.3581,0.2849,-1.0712,0.7885,1.0706
9203,-1.9201,-11.5329,0.3424,-1.0866,0.8007,1.0749
9211,-1.9609,-11.5855,0.3352,-1.1061,0.8124,1.0829
9220,-1.9704,-11.7627,0.3974,-1.1279,0.8159,1.0885
9228,-2.0087,-11.8633,0.3807,-1.1402,0.8231,1.0957
9235,-2.0111,-12.0309,0.3352,-1.1578,0.8327,1.1032
9243,-2.0494,-12.1338,0.3496,-1.1783,0.8362,1.1072
9251,-2.1021,-12.2032,0.3112,-1.2025,0.8460,1.1141
9260,-2.0470,-12.3732,0.4286,-1.2223,0.8487,1.1197
9268,-2.1356,-12.4618,0.3567,-1.2492,0.8519,1.1266
9275,-2.1356,-12.5025,0.4693,-1.2782,0.8527,1.1327
9283,-2.1380,-12.6007,0.3879,-1.3070,0.8479,1.1415
9291,-2.1524,-12.7443,0.4549,-1.3360,0.8455,1.1525
9299,-2.1739,-12.7994,0.3783,-1.3651,0.8383,1.1612
9308,-2.2529,-12.8760,0.4214,-1.3917,0.8348,1.1703
9316,-2.2027,-12.9909,0.3352,-1.4178,0.8255,1.1740
9323,-2.1500,-13.0460,0.4453,-1.4426,0.8212,1.1850
9331,-2.2075,-13.1298,0.3567,-1.4725,0.8092,1.1890
9339,-2.2146,-13.2280,0.3855,-1.4973,0.7981,1.1924
9348,-2.2458,-13.2735,0.4501,-1.5194,0.7831,1.1919
9356,-2.2649,-13.3165,0.5291,-1.5503,0.7658,1.2001
9363,-2.2817,-13.3884,0.4405,-1.5740,0.7496,1.1983
9371,-2.2865,-13.4027,0.4764,-1.5929,0.7240,1.1996
9379,-2.2218,-13.4267,0.4956,-1.6134,0.7077,1.1991
9388,-2.2027,-13.4817,0.4717,-1.6321,0.6784,1.1943
9396,-2.2458,-13.4674,0.5818,-1.6398,0.6539,1.1890
9404,-2.2482,-13.5320,0.5938,-1.6467,0.6302,1.1823
9411,-2.1284,-13.5584,0.5315,-1.6537,0.6046,1.1746
9419,-2.2290,-13.4770,0.5363,-1.6611,0.5814,1.1650
9427,-2.1979,-13.4123,0.6081,-1.6662,0.5545,1.1567
9436,-2.1907,-13.4626,0.5435,-1.6670,0.5300,1.1461
9444,-2.1668,-13.4075,0.5938,-1.6670,0.5073,1.1351
9451,-2.1500,-13.3716,0.5986,-1.6617,0.4844,1.1231
9459,-2.1572,-13.3094,0.5315,-1.6515,0.4612,1.1143
9467,-2.1356,-13.2782,0.6919,-1.6417,0.4391,1.1061
9476,-2.1332,-13.1633,0.5794,-1.6315,0.4133,1.0952
9484,-2.0806,-13.1226,0.6057,-1.6150,0.3866,1.0861
9492,-2.0662,-13.0508,0.4836,-1.6006,0.3600,1.0709
9499,-2.0901,-12.9670,0.6153,-1.5865,0.3325,1.0555
9507,-2.0877,-12.8808,0.6273,-1.5713,0.3144,1.0467
9516,-2.0399,-12.7467,0.6512,-1.5508,0.2891,1.0275
9524,-2.0063,-12.6749,0.5650,-1.5364,0.2697,1.0136
9532,-2.0039,-12.5696,0.5267,-1.5188,0.2529,1.0016
9539,-1.9992,-12.4714,0.6105,-1.5036,0.2356,0.9907
9547,-1.9680,-12.3541,0.5770,-1.4847,0.2228,0.9795
9555,-1.9561,-12.2439,0.5483,-1.4685,0.2041,0.9662
9564,-1.9513,-12.1314,0.5124,-1.4482,0.1887,0.9601
9572,-1.9225,-12.0931,0.6081,-1.4309,0.1764,0.9438
9580,-1.9106,-11.8705,0.4621,-1.4099,0.1660,0.9324
9587,-1.8747,-11.7867,0.5171,-1.3965,0.1559,0.9204
9595,-1.8483,-11.6909,0.4932,-1.3776,0.1482,0.9102
9604,-1.8962,-11.5113,0.5148,-1.3659,0.1487,0.8969
9612,-1.8268,-11.4491,0.5076,-1.3496,0.1436,0.8868
9620,-1.7837,-11.2671,0.4597,-1.3267,0.1463,0.8732
9627,-1.7382,-11.2408,0.4717,-1.3139,0.1431,0.8612
9635,-1.7789,-11.0995,0.4166,-1.2907,0.1391,0.8503
9644,-1.7214,-10.9463,0.4573,-1.2697,0.1383,0.8356
9652,-1.6520,-10.8170,0.4693,-1.2478,0.1426,0.8223
9660,-1.6328,-10.6303,0.5219,-1.2271,0.1455,0.8013
9668,-1.6400,-10.5321,0.3903,-1.2033,0.1524,0.7818
9675,-1.5538,-10.3693,0.3879,-1.1815,0.1633,0.7661
9683,-1.4940,-10.3070,0.3567,-1.1514,0.1665,0.7445
9692,-1.5538,-10.2424,0.4022,-1.1245,0.1724,0.7210
9700,-1.5179,-9.9886,0.4525,-1.0922,0.1796,0.6989
9708,-1.4844,-9.9072,0.3879,-1.0608,0.1887,0.6779
9715,-1.5083,-9.7731,0.4357,-1.0267,0.1993,0.6502
9723,-1.5012,-9.6702,0.3567,-0.9856,0.2062,0.6275
9732,-1.3743,-9.5265,0.5291,-0.9518,0.2134,0.5987
9740,-1.4102,-9.4427,0.3950,-0.9156,0.2268,0.5732
9748,-1.3575,-9.3182,0.4812,-0.8692,0.2326,0.5444
9755,-1.3791,-9.2177,0.4477,-0.8290,0.2419,0.5135
9763,-1.3192,-9.1219,0.5052,-0.7818,0.2499,0.4860
9772,-1.2977,-8.9878,0.4836,-0.7386,0.2598,0.4519
9780,-1.3072,-8.9208,0.5028,-0.6923,0.2710,0.4207
9788,-1.2474,-8.7963,0.5171,-0.6432,0.2782,0.3869
9796,-1.2354,-8.7053,0.4166,-0.5891,0.2846,0.3557
9803,-1.2522,-8.6574,0.4908,-0.5399,0.2923,0.3227
9811,-1.2091,-8.6359,0.4357,-0.4852,0.3000,0.2886
9820,-1.1947,-8.5305,0.4262,-0.4346,0.3078,0.2505
9828,-1.1708,-8.4731,0.4741,-0.3784,0.3086,0.2153
9836,-1.1732,-8.4276,0.4549,-0.3224,0.3144,0.1825
9843,-1.1756,-8.3414,0.4501,-0.2670,0.3115,0.1474
9851,-1.1756,-8.3366,0.4190,-0.2142,0.3126,0.1074
9860,-1.2258,-8.2887,0.4429,-0.1569,0.3112,0.0754
9868,-1.1708,-8.2313,0.4334,-0.1013,0.3070,0.0405
9876,-1.1636,-8.2480,0.4381,-0.0413,0.3056,0.0000
9884,-1.1899,-8.2432,0.4573,0.0152,0.2960,-0.0338
9891,-1.1779,-8.2576,0.5507,0.0759,0.2883,-0.0685
9900,-1.2115,-8.2720,0.4860,0.1303,0.2750,-0.1031
9908,-1.1947,-8.2935,0.3879,0.1863,0.2606,-0.1412
9916,-1.1875,-8.3797,0.4860,0.2425,0.2459,-0.1764
9924,-1.2186,-8.3725,0.5315,0.2990,0.2233,-0.2086
9931,-1.2115,-8.4467,0.5483,0.3547,0.2014,-0.2449
9939,-1.2186,-8.4635,0.5435,0.4122,0.1791,-0.2785
9948,-1.2426,-8.5688,0.4477,0.4682,0.1506,-0.3136
9956,-1.2809,-8.5952,0.4310,0.5193,0.1207,-0.3475
9964,-1.3479,-8.6287,0.5291,0.5737,0.0943,-0.3786
9972,-1.3479,-8.6862,0.4908,0.6241,0.0624,-0.4077
9979,-1.2594,-8.7867,0.3950,0.6755,0.0258,-0.4365
9988,-1.3312,-8.8681,0.4956,0.7208,-0.0072,-0.4674
9996,-1.3671,-8.9352,0.4549,0.7682,-0.0440,-0.4962
10004,-1.3838,-9.1171,0.4070,0.8127,-0.0807,-0.5281
10012,-1.3431,-9.1147,0.3304,0.8551,-0.1140,-0.5518
10019,-1.4437,-9.2081,0.4429,0.8940,-0.1503,-0.5782
10028,-1.4317,-9.4068,0.4142,0.9326,-0.1836,-0.6107
10036,-1.4581,-9.5624,0.2729,0.9678,-0.2198,-0.6344
10044,-1.5083,-9.6462,0.2801,1.0032,-0.2529,-0.6640
10052,-1.5179,-9.7492,0.2801,1.0325,-0.2910,-0.6867
10060,-1.5730,-9.9096,0.3065,1.0635,-0.3267,-0.7120
10067,-1.6041,-10.0197,0.2346,1.0925,-0.3611,-0.7349
10076,-1.5730,-10.1706,0.3304,1.1149,-0.3976,-0.7552
10084,-1.6975,-10.2855,0.2418,1.1461,-0.4357,-0.7754
10092,-1.7526,-10.3908,0.2969,1.1698,-0.4732,-0.7933
10100,-1.7789,-10.5393,0.2274,1.1919,-0.5097,-0.8100
10107,-1.7741,-10.6686,0.2538,1.2140,-0.5425,-0.8226
10116,-1.7358,-10.8505,0.2203,1.2287,-0.5724,-0.8367
10124,-1.8459,-10.9056,0.2203,1.2425,-0.6070,-0.8543
10132,-1.8771,-11.0445,0.1580,1.2590,-0.6406,-0.8652
10140,-1.9034,-11.1953,0.1772,1.2641,-0.6694,-0.8748
10148,-1.9345,-11.3270,0.1293,1.2692,-0.6987,-0.8905
10156,-1.9130,-11.4132,0.2251,1.2761,-0.7208,-0.8958
10164,-2.0279,-11.5951,0.1269,1.2820,-0.7421,-0.9081
10172,-1.9537,-11.6310,0.0814,1.2814,-0.7618,-0.9172
10180,-2.0039,-11.7675,0.1413,1.2835,-0.7781,-0.9262
10188,-1.9824,-11.8681,0.0910,1.2865,-0.7965,-0.9382
10195,-2.0734,-11.9423,0.1413,1.2886,-0.8045,-0.9462
10204,-2.0518,-12.0213,0.2203,1.2881,-0.8175,-0.9590
10212,-2.0518,-12.1625,0.1365,1.2907,-0.8242,-0.9723
10220,-2.0997,-12.2775,0.1053,1.2953,-0.8308,-0.9851
10228,-2.1069,-12.2942,0.1939,1.2995,-0.8370,-0.9966
10236,-2.0399,-12.3708,0.1580,1.3003,-0.8399,-1.0054
10244,-2.1165,-12.5001,0.1508,1.3137,-0.8420,-1.0192
10252,-2.0686,-12.5815,0.1891,1.3179,-0.8444,-1.0363
10260,-2.1596,-12.6079,0.0718,1.3219,-0.8423,-1.0568
10268,-2.1668,-12.6653,0.1221,1.3326,-0.8316,-1.0722
10276,-2.1404,-12.7515,0.1053,1.3387,-0.8234,-1.0877
10284,-2.1404,-12.7755,0.0790,1.3459,-0.8204,-1.1018
10292,-2.1620,-12.8664,0.1724,1.3547,-0.8050,-1.1151
10300,-2.1524,-12.9071,0.0886,1.3587,-0.7935,-1.1309
10308,-2.1763,-12.9383,0.1963,1.3662,-0.7775,-1.1479
10316,-2.1955,-12.9766,0.1365,1.3680,-0.7637,-1.1615
10323,-2.1979,-12.9981,0.1030,1.3709,-0.7440,-1.1740
10332,-2.1859,-13.0245,0.0790,1.3733,-0.7242,-1.1866
10340,-2.1524,-13.0556,0.0670,1.3832,-0.7013,-1.1980
10348,-2.2577,-13.0197,0.1532,1.3845,-0.6789,-1.2033
10356,-2.3343,-13.0867,0.1413,1.3920,-0.6555,-1.2103
10364,-2.2745,-12.9838,0.1341,1.3883,-0.6344,-1.2151
10372,-2.2793,-13.0053,0.1748,1.3941,-0.6105,-1.2164
10380,-2.2625,-13.0173,0.1652,1.3941,-0.5894,-1.2169
10388,-2.2841,-12.9502,0.1293,1.3952,-0.5630,-1.2188
10396,-2.2027,-12.8832,0.0431,1.3984,-0.5364,-1.2140
10404,-2.2673,-12.9071,0.0479,1.3955,-0.5108,-1.2071
10412,-2.3080,-12.8521,0.0096,1.3899,-0.4844,-1.2001
10420,-2.2529,-12.8233,0.0982,1.3859,-0.4596,-1.1967
10428,-2.2338,-12.7348,-0.0096,1.3768,-0.4359,-1.1868
10436,-2.2098,-12.6869,-0.0144,1.3686,-0.4066,-1.1727
10444,-2.2601,-12.5743,-0.0072,1.3555,-0.3776,-1.1599
10452,-2.2721,-12.5097,-0.0096,1.3416,-0.3552,-1.1501
10460,-2.2577,-12.4091,0.0096,1.3286,-0.3315,-1.1290
10468,-2.2194,-12.3756,0.0335,1.3105,-0.3150,-1.1143
10476,-2.1596,-12.2894,0.0192,1.2950,-0.2926,-1.0978
10484,-2.1979,-12.1721,0.0287,1.2825,-0.2742,-1.0789
10492,-2.1979,-12.1003,0.0479,1.2697,-0.2547,-1.0595
10500,-2.1165,-11.9830,-0.0120,1.2516,-0.2385,-1.0416
10508,-2.0973,-11.8896,0.0575,1.2313,-0.2193,-1.0235
10516,-2.1332,-11.8082,0.0431,1.2161,-0.2054,-1.0048
10524,-2.1045,-11.6909,0.0527,1.1948,-0.1908,-0.9886
10532,-2.0806,-11.5592,0.0886,1.1812,-0.1783,-0.9643
10541,-2.0710,-11.4994,-0.0192,1.1615,-0.1689,-0.9438
10548,-2.0087,-11.3294,0.0742,1.1442,-0.1641,-0.9265
10556,-2.0375,-11.2480,0.0862,1.1285,-0.1519,-0.9116
10564,-1.9345,-11.1354,0.0599,1.1077,-0.1426,-0.8937
10572,-1.9680,-11.0804,0.0383,1.0853,-0.1335,-0.8727
10580,-2.0039,-10.9678,0.0383,1.0640,-0.1276,-0.8583
10588,-1.9441,-10.7907,0.0718,1.0459,-0.1258,-0.8327
10596,-1.9345,-10.6829,0.0910,1.0176,-0.1207,-0.8138
10604,-1.8771,-10.5369,0.0814,0.9939,-0.1210,-0.7898
10612,-1.8890,-10.4267,-0.0575,0.9678,-0.1183,-0.7711
10620,-1.8675,-10.3286,0.0455,0.9419,-0.1204,-0.7458
10629,-1.8651,-10.2448,-0.0263,0.9217,-0.1204,-0.7250
10636,-1.8028,-10.0772,0.0718,0.8958,-0.1202,-0.7013
10644,-1.8244,-9.9958,0.0694,0.8727,-0.1239,-0.6843
10652,-1.7980,-9.8785,0.1700,0.8471,-0.1284,-0.6608
10660,-1.7933,-9.7181,0.0455,0.8194,-0.1338,-0.6360
10669,-1.7095,-9.6103,0.1197,0.8002,-0.1367,-0.6129
10676,-1.7430,-9.5744,0.0407,0.7730,-0.1426,-0.5934
10684,-1.6855,-9.3948,0.0407,0.7440,-0.1452,-0.5718
10692,-1.6664,-9.3278,0.0622,0.7144,-0.1500,-0.5465
10700,-1.6496,-9.2368,0.0670,0.6867,-0.1567,-0.5183
10708,-1.6927,-9.0908,0.0287,0.6552,-0.1657,-0.4911
10717,-1.6185,-9.0812,0.0790,0.6249,-0.1652,-0.4652
10724,-1.6616,-8.9495,-0.0072,0.5977,-0.1703,-0.4370
10732,-1.6640,-8.9040,0.0287,0.5649,-0.1756,-0.4117
10740,-1.6185,-8.8394,0.0383,0.5241,-0.1820,-0.3781
10748,-1.6424,-8.7269,0.0000,0.4959,-0.1804,-0.3459
10757,-1.6376,-8.6694,0.0144,0.4599,-0.1796,-0.3139
10764,-1.6137,-8.5688,0.0455,0.4239,-0.1809,-0.2774
10772,-1.5299,-8.5401,-0.0072,0.3848,-0.1809,-0.2409
10780,-1.6328,-8.4922,0.0766,0.3453,-0.1780,-0.2094
10788,-1.5802,-8.4204,0.0599,0.3131,-0.1735,-0.1703
10797,-1.5443,-8.3989,0.0000,0.2686,-0.1721,-0.1322
10805,-1.5706,-8.3845,0.0239,0.2356,-0.1631,-0.0967
10812,-1.5706,-8.2959,0.0383,0.1937,-0.1583,-0.0594
10820,-1.5969,-8.2839,-0.0215,0.1548,-0.1476,-0.0211
10828,-1.5706,-8.3246,0.0431,0.1170,-0.1386,0.0133
10836,-1.5610,-8.2744,0.0862,0.0839,-0.1263,0.0541
10845,-1.5538,-8.2313,0.0407,0.0392,-0.1135,0.0911
10852,-1.6424,-8.2887,-0.0168,0.0000,-0.0965,0.1287
10860,-1.6065,-8.2983,0.0646,-0.0389,-0.0799,0.1689
10868,-1.5874,-8.3246,-0.0168,-0.0741,-0.0589,0.2097
10876,-1.5754,-8.2791,0.0742,-0.1132,-0.0413,0.2451
10885,-1.6017,-8.3438,0.0239,-0.1514,-0.0224,0.2870
10893,-1.6257,-8.3653,0.1676,-0.1924,0.0040,0.3246
10900,-1.6137,-8.4276,0.0239,-0.2268,0.0277,0.3605
10908,-1.6113,-8.5138,-0.0144,-0.2699,0.0536,0.3970
10916,-1.6328,-8.5377,0.0431,-0.3086,0.0791,0.4386
10925,-1.6065,-8.5808,0.0718,-0.3451,0.1045,0.4740
10933,-1.5921,-8.6933,-0.0263,-0.3845,0.1316,0.5068
10940,-1.5850,-8.7077,0.1173,-0.4167,0.1508,0.5383
10948,-1.5897,-8.8250,0.0287,-0.4503,0.1801,0.5716
10956,-1.5802,-8.9016,0.0622,-0.4844,0.1974,0.6009
10964,-1.5754,-8.9136,0.0263,-0.5124,0.2238,0.6312
10973,-1.6305,-9.0692,0.0958,-0.5524,0.2505,0.6563
10980,-1.6113,-9.1506,0.0742,-0.5798,0.2793,0.6851
10988,-1.6544,-9.2488,-0.0311,-0.6099,0.3008,0.7043
10996,-1.5897,-9.4020,0.1484,-0.6390,0.3333,0.7261
11004,-1.5969,-9.4451,0.0790,-0.6667,0.3547,0.7504
11013,-1.6544,-9.6199,0.0622,-0.6909,0.3738,0.7682
11021,-1.6927,-9.5888,0.1197,-0.7171,0.3992,0.7914
11028,-1.6688,-9.7444,0.2203,-0.7421,0.4159,0.8098
11036,-1.7166,-9.8617,0.1580,-0.7645,0.4402,0.8268
11044,-1.6879,-9.9982,0.2682,-0.7802,0.4602,0.8482
11053,-1.7310,-10.0916,0.2203,-0.8087,0.4788,0.8620
11061,-1.7238,-10.2304,0.1604,-0.8236,0.4999,0.8793
11068,-1.7478,-10.3717,0.1221,-0.8479,0.5204,0.8916
11076,-1.7693,-10.4842,0.1772,-0.8655,0.5428,0.9060
11084,-1.8148,-10.5441,0.2825,-0.8828,0.5566,0.9153
11092,-1.7957,-10.6734,0.2466,-0.9070,0.5710,0.9260
11101,-1.8771,-10.7619,0.2538,-0.9249,0.5849,0.9377
11109,-1.8507,-10.8601,0.2945,-0.9398,0.6017,0.9481
11116,-1.8699,-10.9607,0.2514,-0.9585,0.6134,0.9593
11124,-1.9513,-11.0038,0.2682,-0.9651,0.6259,0.9715
11132,-1.8914,-11.1570,0.3855,-0.9840,0.6406,0.9822
11141,-1.8986,-11.2767,0.2993,-1.0016,0.6550,0.9910
11149,-1.9034,-11.3533,0.3256,-1.0110,0.6667,1.0006
11156,-1.9513,-11.4610,0.2945,-1.0277,0.6832,1.0075
11164,-1.9465,-11.5616,0.3950,-1.0464,0.6896,1.0147
11172,-1.9800,-11.6262,0.3424,-1.0674,0.6997,1.0245
11181,-1.9896,-11.7507,0.2729,-1.0930,0.7056,1.0349
11189,-2.0375,-11.8489,0.3831,-1.1122,0.7120,1.0408
11197,-1.9872,-11.9183,0.3639,-1.1354,0.7173,1.0515
11204,-2.0470,-12.0045,0.3615,-1.1554,0.7205,1.0552
11212,-2.0638,-12.0811,0.3735,-1.1823,0.7189,1.0677
11220,-2.0590,-12.1793,0.3448,-1.2036,0.7168,1.0722
11229,-2.0877,-12.2296,0.4046,-1.2225,0.7120,1.0770
11237,-2.1213,-12.2799,0.3352,-1.2454,0.7099,1.0845
11244,-2.1213,-12.3780,0.3376,-1.2721,0.7016,1.0880
11252,-2.1715,-12.3996,0.4381,-1.2945,0.6909,1.0906
11260,-2.0853,-12.4858,0.4334,-1.3174,0.6859,1.0922
11269,-2.0997,-12.5935,0.4238,-1.3414,0.6805,1.0989
11277,-2.0662,-12.5767,0.4262,-1.3552,0.6696,1.0965
11285,-2.1356,-12.6127,0.3639,-1.3741,0.6614,1.0965
11292,-2.0710,-12.7132,0.4717,-1.3917,0.6515,1.0997
11300,-2.0662,-12.7443,0.3926,-1.4027,0.6406,1.0968
11309,-2.1261,-12.7204,0.4118,-1.4168,0.6249,1.0869
11317,-2.0901,-12.7060,0.4836,-1.4264,0.6091,1.0834
11325,-2.0782,-12.7036,0.4908,-1.4378,0.5833,1.0768
11332,-2.0566,-12.6629,0.4501,-1.4461,0.5668,1.0677
11340,-2.1021,-12.7467,0.5387,-1.4514,0.5516,1.0627
11348,-2.1261,-12.7084,0.4501,-1.4562,0.5252,1.0528
11357,-2.0231,-12.6869,0.5315,-1.4568,0.5055,1.0461
11365,-2.0375,-12.6821,0.4573,-1.4525,0.4860,1.0371
11373,-2.0183,-12.6270,0.5219,-1.4482,0.4727,1.0299
11380,-2.0399,-12.5600,0.5339,-1.4450,0.4525,1.0171
11388,-2.0063,-12.5863,0.4860,-1.4333,0.4351,1.0112
11397,-1.9944,-12.5360,0.5219,-1.4277,0.4090,1.0019
11405,-2.0446,-12.4475,0.5459,-1.4131,0.3914,0.9896
11413,-2.0039,-12.3565,0.5842,-1.4032,0.3712,0.9785
11420,-1.9297,-12.2870,0.5219,-1.3984,0.3499,0.9705
11428,-1.9201,-12.2368,0.5770,-1.3789,0.3333,0.9566
11437,-1.9561,-12.1434,0.4693,-1.3654,0.3198,0.9419
11445,-1.9585,-12.0979,0.5914,-1.3507,0.3038,0.9332
11453,-1.8627,-12.0404,0.5770,-1.3376,0.2870,0.9209
11461,-1.8387,-11.9542,0.4549,-1.3193,0.2734,0.9086
11468,-1.9154,-11.8920,0.4693,-1.3105,0.2598,0.8964
11476,-1.9154,-11.7843,0.4932,-1.2942,0.2449,0.8860
11485,-1.8962,-11.7340,0.4310,-1.2806,0.2350,0.8743
11493,-1.8340,-11.5879,0.4764,-1.2596,0.2268,0.8625
11501,-1.7909,-11.5472,0.3926,-1.2462,0.2214,0.8489
11508,-1.8148,-11.4443,0.4741,-1.2303,0.2097,0.8370
11516,-1.8148,-11.2743,0.4262,-1.2180,0.2062,0.8282
11525,-1.7406,-11.1929,0.4788,-1.2025,0.2006,0.8122
11533,-1.7909,-11.1785,0.4429,-1.1858,0.1913,0.8029
11541,-1.7095,-11.0636,0.3998,-1.1695,0.1884,0.7869
11549,-1.6688,-10.9846,0.5124,-1.1543,0.1865,0.7669
11556,-1.6520,-10.8745,0.4597,-1.1362,0.1884,0.7541
11565,-1.7023,-10.7619,0.4094,-1.1167,0.1863,0.7397
11573,-1.6759,-10.6183,0.4190,-1.0984,0.1820,0.7229
11581,-1.7119,-10.5943,0.4980,-1.0826,0.1825,0.7096
11589,-1.5610,-10.4052,0.4357,-1.0600,0.1884,0.6837
11596,-1.5897,-10.3477,0.5100,-1.0384,0.1865,0.6683
11604,-1.6328,-10.2304,0.4932,-1.0142,0.1871,0.6494
11613,-1.5251,-10.1562,0.4118,-0.9875,0.1927,0.6278
11621,-1.5371,-9.9718,0.4070,-0.9625,0.1988,0.6094
11629,-1.5107,-9.9647,0.3711,-0.9313,0.2001,0.5883
11636,-1.5610,-9.8186,0.3831,-0.9036,0.2030,0.5638
11644,-1.5203,-9.7300,0.3974,-0.8735,0.2086,0.5444
11653,-1.4940,-9.6510,0.4381,-0.8431,0.2134,0.5185
11661,-1.4269,-9.5385,0.4238,-0.8055,0.2193,0.4943
11669,-1.4389,-9.4308,0.4501,-0.7695,0.2233,0.4663
11677,-1.3958,-9.4044,0.3687,-0.7312,0.2241,0.4389
11684,-1.4269,-9.3158,0.4070,-0.6965,0.2257,0.4173
11693,-1.3527,-9.1937,0.3735,-0.6542,0.2257,0.3896
11701,-1.3958,-9.1650,0.4262,-0.6134,0.2305,0.3595
11709,-1.3312,-8.9950,0.4549,-0.5716,0.2326,0.3333
11717,-1.3168,-8.9830,0.5315,-0.5289,0.2289,0.3008
11724,-1.2378,-8.8897,0.4860,-0.4783,0.2356,0.2734
11732,-1.3001,-8.9088,0.4477,-0.4399,0.2334,0.2433
11741,-1.2833,-8.7867,0.4884,-0.3888,0.2332,0.2137
11749,-1.3431,-8.7939,0.5171,-0.3416,0.2329,0.1791
11757,-1.2761,-8.6838,0.3950,-0.2976,0.2281,0.1495
11765,-1.2594,-8.7293,0.4286,-0.2475,0.2182,0.1228
11772,-1.2617,-8.7005,0.5100,-0.1969,0.2129,0.0911
11781,-1.3096,-8.6742,0.4764,-0.1468,0.2153,0.0576
11789,-1.2330,-8.6598,0.4286,-0.0981,0.2092,0.0272
11797,-1.2067,-8.6191,0.4788,-0.0490,0.2033,-0.0059
11805,-1.2809,-8.6311,0.4142,0.0016,0.1884,-0.0408
11812,-1.2426,-8.6119,0.3950,0.0493,0.1841,-0.0658
11821,-1.3024,-8.6000,0.4932,0.1026,0.1679,-0.1053
11829,-1.2881,-8.6455,0.4980,0.1490,0.1575,-0.1338
11837,-1.2210,-8.6383,0.4142,0.1980,0.1415,-0.1644
11845,-1.2378,-8.6742,0.4693,0.2435,0.1263,-0.1969
11853,-1.2594,-8.7580,0.4381,0.2998,0.1122,-0.2265
11860,-1.3384,-8.7771,0.3783,0.3379,0.0877,-0.2574
11869,-1.3336,-8.7771,0.4286,0.3816,0.0658,-0.2880
11877,-1.3192,-8.8370,0.4310,0.4242,0.0466,-0.3150
11885,-1.3503,-8.8873,0.3855,0.4692,0.0266,-0.3456
11893,-1.3551,-8.9232,0.4812,0.5124,0.0013,-0.3717
11900,-1.3384,-9.0046,0.4046,0.5534,-0.0285,-0.3994
11909,-1.3815,-9.0860,0.4381,0.5905,-0.0536,-0.4250
11917,-1.4150,-9.1435,0.3807,0.6302,-0.0799,-0.4511
11925,-1.3982,-9.2296,0.2658,0.6672,-0.1111,-0.4799
11933,-1.4676,-9.3206,0.3376,0.7059,-0.1404,-0.4999
11941,-1.4581,-9.3829,0.3424,0.7365,-0.1687,-0.5263
11949,-1.4820,-9.5337,0.3256,0.7693,-0.1927,-0.5564
11957,-1.5227,-9.5672,0.3280,0.8013,-0.2190,-0.5777
11965,-1.5179,-9.7659,0.3376,0.8308,-0.2462,-0.5998
11973,-1.5778,-9.7995,0.3112,0.8631,-0.2729,-0.6238
11981,-1.5921,-9.8904,0.3639,0.8921,-0.3040,-0.6398
11988,-1.6065,-10.0149,0.2969,0.9209,-0.3296,-0.6632
11997,-1.6376,-10.0796,0.2251,0.9475,-0.3584,-0.6819
12005,-1.6688,-10.2328,0.2897,0.9678,-0.3864,-0.7027
12013,-1.6975,-10.3286,0.3591,0.9894,-0.4101,-0.7192
12021,-1.6807,-10.4244,0.3400,1.0136,-0.4375,-0.7360
12029,-1.7406,-10.5034,0.2777,1.0339,-0.4607,-0.7477
12037,-1.7382,-10.5704,0.3424,1.0523,-0.4839,-0.7634
12045,-1.7406,-10.6853,0.2921,1.0629,-0.5049,-0.7762
12053,-1.7813,-10.8074,0.2131,1.0797,-0.5257,-0.7853
12061,-1.8459,-10.8864,0.1748,1.0888,-0.5492,-0.7957
12069,-1.8364,-11.0061,0.2466,1.1032,-0.5692,-0.8050
12077,-1.8459,-11.0636,0.1676,1.1103,-0.5899,-0.8170
12085,-1.8818,-11.1713,0.1245,1.1175,-0.6038,-0.8266
12093,-1.8531,-11.2240,0.1820,1.1290,-0.6241,-0.8346
12101,-1.8842,-11.3701,0.2107,1.1330,-0.6368,-0.8463
12109,-1.9585,-11.4682,0.1676,1.1429,-0.6515,-0.8556
12118,-1.9561,-11.5209,0.1460,1.1461,-0.6608,-0.8652
12125,-1.9537,-11.5496,0.1389,1.1564,-0.6718,-0.8721
12133,-1.9896,-11.6646,0.1700,1.1610,-0.6771,-0.8879
12141,-2.0375,-11.7483,0.1820,1.1634,-0.6805,-0.8964
12149,-1.9752,-11.7843,0.2394,1.1708,-0.6845,-0.9086
12157,-1.9992,-11.8872,0.1006,1.1791,-0.6880,-0.9206
12165,-2.0087,-11.9303,0.2179,1.1850,-0.6880,-0.9302
12173,-1.9944,-11.9758,0.1915,1.1946,-0.6824,-0.9478
12181,-1.9800,-12.0333,0.1652,1.1991,-0.6816,-0.9585
12189,-1.9728,-12.1147,0.2059,1.2047,-0.6792,-0.9739
12197,-2.0207,-12.2080,0.0766,1.2084,-0.6787,-0.9862
12206,-2.0351,-12.1889,0.1293,1.2159,-0.6731,-0.9990
12213,-2.1141,-12.2344,0.1149,1.2223,-0.6627,-1.0086
12221,-2.0830,-12.3565,0.1197,1.2249,-0.6523,-1.0253
12229,-2.1548,-12.3277,0.1820,1.2289,-0.6438,-1.0328
12237,-2.1308,-12.3062,0.1341,1.2265,-0.6289,-1.0405
12246,-2.1237,-12.3589,0.0527,1.2332,-0.6225,-1.0464
12253,-2.1284,-12.3828,0.0982,1.2351,-0.6057,-1.0496
12261,-2.2051,-12.3972,0.2155,1.2364,-0.5870,-1.0605
12269,-2.1284,-12.3277,0.1963,1.2401,-0.5740,-1.0658
12277,-2.1380,-12.3517,0.1006,1.2444,-0.5564,-1.0680
12285,-2.1045,-12.2894,0.1556,1.2465,-0.5383,-1.0722
12293,-2.1069,-12.3900,0.0862,1.2470,-0.5215,-1.0685
12301,-2.1596,-12.3182,0.1676,1.2492,-0.5052,-1.0693
12309,-2.1572,-12.2918,0.0359,1.2510,-0.4876,-1.0714
12317,-2.1859,-12.2487,0.0790,1.2500,-0.4660,-1.0640
12325,-2.1524,-12.2368,0.1437,1.2486,-0.4474,-1.0613
12334,-2.1739,-12.2487,0.0646,1.2462,-0.4309,-1.0547
12341,-2.1907,-12.1482,0.0646,1.2409,-0.4106,-1.0488
12349,-2.1237,-12.1625,0.0622,1.2345,-0.3941,-1.0403
12357,-2.1213,-12.1051,0.0766,1.2281,-0.3704,-1.0285
12365,-2.0614,-12.0572,0.0910,1.2167,-0.3517,-1.0176
12374,-2.0997,-11.9566,0.0383,1.2079,-0.3360,-1.0046
12381,-2.1691,-11.9064,0.0335,1.1975,-0.3203,-0.9894
12389,-2.1644,-11.8657,0.0670,1.1810,-0.3000,-0.9782
12397,-2.0638,-11.7699,0.0239,1.1714,-0.2811,-0.9593
12405,-2.0734,-11.6574,0.0982,1.1591,-0.2665,-0.9457
12413,-2.0327,-11.5879,0.0862,1.1386,-0.2505,-0.9292
12422,-2.0830,-11.4874,0.0982,1.1314,-0.2398,-0.9132
12429,-2.0542,-11.4443,0.0670,1.1125,-0.2294,-0.8969
12437,-2.0087,-11.3701,-0.0407,1.0976,-0.2118,-0.8791
12445,-2.0135,-11.2671,0.0838,1.0840,-0.1996,-0.8644
12453,-1.9728,-11.1953,0.0886,1.0640,-0.1916,-0.8505
12462,-2.0016,-11.0660,0.0599,1.0453,-0.1823,-0.8308
12469,-1.9992,-10.9678,0.0383,1.0285,-0.1716,-0.8119
12477,-1.9680,-10.9415,0.0910,1.0080,-0.1636,-0.7970
12485,-1.9154,-10.8122,-0.0287,0.9944,-0.1567,-0.7775
12493,-1.8435,-10.7524,0.1269,0.9715,-0.1532,-0.7613
12502,-1.8651,-10.6446,0.0192,0.9510,-0.1452,-0.7453
12510,-1.9082,-10.5680,0.0527,0.9355,-0.1410,-0.7282
12517,-1.8890,-10.4674,0.0383,0.9140,-0.1346,-0.7128
12525,-1.8387,-10.3765,0.0383,0.8974,-0.1351,-0.6957
12533,-1.8483,-10.2735,0.0072,0.8751,-0.1340,-0.6768
12541,-1.8100,-10.1730,0.0168,0.8458,-0.1335,-0.6499
12550,-1.8004,-10.1107,0.0168,0.8236,-0.1308,-0.6262
12557,-1.8028,-9.9862,0.0024,0.8039,-0.1298,-0.6081
12565,-1.7957,-9.9048,0.0335,0.7757,-0.1303,-0.5833
12573,-1.7166,-9.7755,0.1125,0.7509,-0.1300,-0.5588
12581,-1.7597,-9.7300,0.0742,0.7224,-0.1359,-0.5377
12590,-1.7693,-9.6630,0.1341,0.7032,-0.1343,-0.5159
12598,-1.7166,-9.5050,0.1317,0.6742,-0.1386,-0.4922
12605,-1.6927,-9.4906,0.0455,0.6526,-0.1418,-0.4687
12613,-1.7310,-9.4068,0.1053,0.6241,-0.1442,-0.4447
12621,-1.6927,-9.3613,0.0742,0.6006,-0.1490,-0.4269
12630,-1.6424,-9.2847,0.1077,0.5740,-0.1479,-0.3981
12638,-1.6855,-9.2105,0.0694,0.5465,-0.1500,-0.3754
12645,-1.6400,-9.1626,0.0311,0.5180,-0.1484,-0.3517
12653,-1.6688,-8.9854,0.0407,0.4874,-0.1492,-0.3264
12661,-1.6592,-9.0046,0.0527,0.4570,-0.1543,-0.2971
12669,-1.6113,-8.8921,0.1437,0.4245,-0.1575,-0.2705
12678,-1.6544,-8.8538,-0.0287,0.3928,-0.1545,-0.2425
12686,-1.5682,-8.8538,0.0599,0.3643,-0.1575,-0.2108
12693,-1.6520,-8.7556,0.0838,0.3317,-0.1540,-0.1804
12701,-1.6185,-8.7173,0.0622,0.3006,-0.1492,-0.1498
12709,-1.5850,-8.7029,-0.0551,0.2665,-0.1514,-0.1202
12718,-1.5969,-8.6838,0.1030,0.2326,-0.1404,-0.0877
12726,-1.5467,-8.6981,0.0192,0.2022,-0.1396,-0.0525
12733,-1.6185,-8.5665,0.0575,0.1639,-0.1292,-0.0245
12741,-1.6233,-8.6024,0.0072,0.1303,-0.1231,0.0096
12749,-1.6065,-8.5976,0.0407,0.0943,-0.1077,0.0437
12758,-1.6089,-8.5545,0.0694,0.0600,-0.1045,0.0778
12766,-1.6376,-8.5593,0.0503,0.0266,-0.0890,0.1111
12774,-1.6137,-8.5329,0.0431,-0.0088,-0.0746,0.1436
12781,-1.5610,-8.5832,0.0766,-0.0357,-0.0640,0.1796
12789,-1.6089,-8.5736,0.0766,-0.0733,-0.0466,0.2097
12797,-1.5826,-8.6311,0.0575,-0.1039,-0.0264,0.2425
12806,-1.5586,-8.6694,0.0024,-0.1332,-0.0083,0.2737
12814,-1.5730,-8.7101,0.0263,-0.1676,0.0109,0.3075
12821,-1.6017,-8.7005,0.0575,-0.2057,0.0386,0.3411
12829,-1.6017,-8.8585,0.0024,-0.2374,0.0525,0.3698
12837,-1.6089,-8.7676,-0.0120,-0.2747,0.0685,0.4010
12846,-1.6712,-8.8202,0.0168,-0.3075,0.0943,0.4327
12854,-1.6041,-8.8777,0.1413,-0.3400,0.1167,0.4610
12862,-1.6616,-8.9208,0.0168,-0.3659,0.1386,0.4895
12869,-1.6137,-9.0309,-0.0479,-0.3994,0.1585,0.5201
12877,-1.5850,-9.0716,0.0886,-0.4245,0.1791,0.5470
12886,-1.6065,-9.1602,0.1173,-0.4594,0.2001,0.5726
12894,-1.6472,-9.2775,0.0838,-0.4874,0.2201,0.6014
12902,-1.6807,-9.2967,0.1101,-0.5209,0.2443,0.6182
12909,-1.5993,-9.3972,0.1006,-0.5468,0.2646,0.6427
12917,-1.6616,-9.4188,0.1006,-0.5734,0.2875,0.6619
12925,-1.7238,-9.5361,0.0982,-0.5993,0.3043,0.6813
12934,-1.6927,-9.6462,0.0910,-0.6238,0.3283,0.7019
12942,-1.6783,-9.7205,0.1053,-0.6419,0.3451,0.7194
12949,-1.6616,-9.8043,0.1700,-0.6656,0.3627,0.7376
12957,-1.7430,-9.9671,0.2514,-0.6856,0.3810,0.7576
12965,-1.7214,-10.0269,0.2298,-0.7013,0.4064,0.7709
12974,-1.7454,-10.1299,0.1413,-0.7208,0.4298,0.7869
12982,-1.7430,-10.2089,0.0982,-0.7416,0.4463,0.8005
12990,-1.7765,-10.2376,0.2466,-0.7610,0.4671,0.8135
12997,-1.7957,-10.3501,0.1772,-0.7799,0.4874,0.8242
13005,-1.7717,-10.4483,0.1532,-0.7946,0.5063,0.8340
13014,-1.7837,-10.5010,0.2610,-0.8114,0.5271,0.8460
13022,-1.8100,-10.5824,0.2059,-0.8276,0.5417,0.8607
13030,-1.8244,-10.6063,0.2753,-0.8396,0.5580,0.8679
13037,-1.7669,-10.7787,0.2346,-0.8524,0.5745,0.8799
13045,-1.8100,-10.9223,0.2825,-0.8687,0.5907,0.8905
13053,-1.8675,-11.0205,0.2705,-0.8857,0.6033,0.8998
13062,-1.8555,-11.1043,0.3089,-0.9028,0.6142,0.9102
13070,-1.8938,-11.1019,0.3352,-0.9174,0.6217,0.9193
13078,-1.8818,-11.1953,0.3663,-0.9401,0.6326,0.9246
13085,-1.8914,-11.2695,0.2897,-0.9555,0.6384,0.9321
13093,-1.9154,-11.3342,0.3424,-0.9737,0.6438,0.9382
13102,-1.8914,-11.3916,0.3663,-0.9931,0.6451,0.9481
13110,-1.9273,-11.4754,0.2825,-1.0094,0.6454,0.9523
13118,-1.9321,-11.5736,0.3687,-1.0275,0.6510,0.9603
13125,-1.9776,-11.6693,0.2921,-1.0477,0.6494,0.9667
13133,-1.9896,-11.7555,0.3615,-1.0648,0.6443,0.9721
13142,-1.9561,-11.7867,0.3519,-1.0888,0.6446,0.9739
13150,-1.9848,-11.7914,0.3136,-1.1066,0.6408,0.9795
13158,-2.0159,-11.8250,0.3400,-1.1277,0.6336,0.9830
13166,-2.0399,-11.8896,0.3280,-1.1477,0.6227,0.9848
13173,-1.9752,-11.8992,0.3998,-1.1666,0.6137,0.9894
13181,-1.9872,-11.9806,0.3065,-1.1863,0.6006,0.9907
13190,-1.9537,-11.9902,0.2969,-1.2007,0.5878,0.9939
13198,-1.9680,-12.0141,0.2825,-1.2164,0.5844,0.9936
13206,-2.0016,-12.0045,0.3496,-1.2308,0.5694,0.9902
13213,-1.9848,-12.0141,0.3376,-1.2414,0.5574,0.9894
13221,-1.9968,-12.1530,0.4238,-1.2532,0.5473,0.9907
13230,-2.0518,-12.1290,0.4118,-1.2625,0.5313,0.9798
13238,-1.9992,-12.1027,0.4717,-1.2689,0.5121,0.9803
13246,-2.0135,-12.0692,0.4860,-1.2769,0.4972,0.9742
13254,-2.0135,-12.1338,0.4142,-1.2796,0.4823,0.9689
13261,-1.9872,-12.1171,0.4190,-1.2820,0.4610,0.9625
13270,-1.9561,-12.1266,0.4621,-1.2841,0.4410,0.9553
13278,-1.9321,-12.0883,0.4286,-1.2849,0.4279,0.9489
13286,-1.9896,-12.0692,0.4238,-1.2841,0.4005,0.9427
13294,-1.9752,-12.0261,0.4310,-1.2817,0.3834,0.9300
13301,-1.9321,-12.0285,0.4693,-1.2761,0.3645,0.9238
13309,-1.9585,-12.0093,0.4573,-1.2697,0.3496,0.9188
13318,-1.9082,-11.8992,0.4836,-1.2625,0.3296,0.9073
13326,-1.9513,-11.8609,0.4381,-1.2569,0.3118,0.8988
13334,-1.9489,-11.8298,0.4932,-1.2481,0.2971,0.8892
13342,-1.8914,-11.7220,0.4693,-1.2393,0.2755,0.8791
13349,-1.8771,-11.7795,0.4238,-1.2289,0.2593,0.8727
13358,-1.8435,-11.6981,0.4788,-1.2135,0.2435,0.8599
13366,-1.8627,-11.6215,0.4788,-1.2049,0.2289,0.8495
13374,-1.8124,-11.5544,0.3950,-1.1908,0.2161,0.8383
13382,-1.8818,-11.4874,0.4812,-1.1788,0.2086,0.8290
13389,-1.7957,-11.4132,0.4980,-1.1636,0.1964,0.8138
13398,-1.8459,-11.3102,0.5124,-1.1511,0.1921,0.8071
13406,-1.7526,-11.2815,0.4381,-1.1386,0.1791,0.7903
13414,-1.7597,-11.2073,0.4764,-1.1247,0.1700,0.7807
13422,-1.7645,-11.0899,0.4262,-1.1058,0.1708,0.7698
13430,-1.7262,-11.0421,0.3855,-1.0960,0.1647,0.7562
13437,-1.6831,-10.9798,0.3831,-1.0757,0.1588,0.7432
13446,-1.6855,-10.8912,0.4022,-1.0619,0.1609,0.7298
13454,-1.7238,-10.8026,0.4357,-1.0456,0.1639,0.7141
13462,-1.6951,-10.7739,0.3591,-1.0299,0.1657,0.7013
13470,-1.7262,-10.6374,0.4477,-1.0104,0.1713,0.6880
13477,-1.6759,-10.5656,0.3687,-0.9904,0.1721,0.6710
13486,-1.6496,-10.4387,0.4238,-0.9763,0.1719,0.6592
13494,-1.6376,-10.3693,0.3328,-0.9569,0.1703,0.6408
13502,-1.6161,-10.3238,0.3926,-0.9350,0.1807,0.6230
13510,-1.5826,-10.2663,0.3184,-0.9097,0.1849,0.6073
13517,-1.5778,-10.1730,0.3735,-0.8881,0.1900,0.5883
13526,-1.5874,-10.0676,0.3184,-0.8657,0.1929,0.5678
13534,-1.5012,-9.9982,0.4956,-0.8420,0.2030,0.5481
13542,-1.5012,-9.9120,0.4334,-0.8151,0.2081,0.5271
13550,-1.4700,-9.8497,0.4142,-0.7943,0.2097,0.5084
13558,-1.4988,-9.7947,0.4070,-0.7621,0.2172,0.4852
13565,-1.4629,-9.6845,0.3831,-0.7312,0.2182,0.4610
13574,-1.4700,-9.6319,0.3998,-0.7024,0.2201,0.4405
13582,-1.4317,-9.5672,0.4094,-0.6680,0.2238,0.4157
13590,-1.4341,-9.4810,0.4645,-0.6328,0.2262,0.3914
13598,-1.4365,-9.3948,0.4357,-0.5998,0.2302,0.3656
13605,-1.3623,-9.3613,0.3352,-0.5668,0.2366,0.3400
13614,-1.3958,-9.2512,0.4166,-0.5300,0.2364,0.3128
13622,-1.4724,-9.2296,0.4788,-0.4895,0.2377,0.2888
13630,-1.4054,-9.1818,0.4908,-0.4517,0.2356,0.2617
13638,-1.3479,-9.1004,0.3687,-0.4165,0.2398,0.2329
13646,-1.3886,-9.0692,0.4381,-0.3720,0.2388,0.2070
13654,-1.3551,-9.0166,0.4621,-0.3304,0.2337,0.1801
13662,-1.4054,-8.9807,0.4693,-0.2939,0.2316,0.1537
13670,-1.3312,-8.9591,0.4334,-0.2505,0.2252,0.1231
13678,-1.3791,-8.9184,0.3879,-0.2057,0.2241,0.0935
13686,-1.3671,-8.8921,0.3831,-0.1671,0.2206,0.0706
13693,-1.3024,-8.8753,0.4932,-0.1295,0.2113,0.0402
13702,-1.3408,-8.8250,0.4357,-0.0813,0.2025,0.0139
13710,-1.3862,-8.8969,0.4166,-0.0434,0.1929,-0.0189
13718,-1.3312,-8.8801,0.4453,0.0035,0.1817,-0.0482
13726,-1.3288,-8.8490,0.4094,0.0418,0.1732,-0.0757
13734,-1.3527,-8.9543,0.3974,0.0866,0.1593,-0.1031
13742,-1.3001,-8.9399,0.4429,0.1268,0.1455,-0.1308
13750,-1.3623,-8.9280,0.4238,0.1676,0.1282,-0.1583
13758,-1.3791,-8.9399,0.4477,0.2081,0.1045,-0.1889
13766,-1.3048,-8.9352,0.3352,0.2441,0.0882,-0.2137
13774,-1.3216,-8.9687,0.2753,0.2832,0.0682,-0.2411
13782,-1.3671,-9.0644,0.3663,0.3166,0.0498,-0.2641
13790,-1.3934,-9.0908,0.3591,0.3581,0.0285,-0.2880
13798,-1.3886,-9.0980,0.3424,0.3952,0.0035,-0.3134
13806,-1.4078,-9.1339,0.3376,0.4330,-0.0203,-0.3341
13814,-1.3910,-9.1482,0.4286,0.4644,-0.0416,-0.3619
13822,-1.4413,-9.2823,0.3591,0.4962,-0.0645,-0.3832
13830,-1.4269,-9.3254,0.3926,0.5313,-0.0901,-0.4061
13838,-1.4150,-9.3637,0.3855,0.5604,-0.1148,-0.4285
13846,-1.4868,-9.5026,0.3041,0.5918,-0.1388,-0.4495
13854,-1.5323,-9.4954,0.3496,0.6211,-0.1620,-0.4743
13862,-1.4868,-9.5864,0.3711,0.6467,-0.1876,-0.4972
13870,-1.5467,-9.6510,0.2801,0.6787,-0.2102,-0.5196
13878,-1.5371,-9.7085,0.3112,0.7096,-0.2332,-0.5383
13886,-1.5850,-9.8258,0.2658,0.7346,-0.2574,-0.5585
13894,-1.6161,-9.8234,0.2801,0.7650,-0.2798,-0.5774
13902,-1.5706,-9.9407,0.3352,0.7866,-0.2990,-0.5958
13911,-1.5969,-10.0245,0.3663,0.8103,-0.3227,-0.6121
13918,-1.6257,-10.1418,0.3256,0.8340,-0.3472,-0.6267
13926,-1.6472,-10.2472,0.2251,0.8513,-0.3664,-0.6438
13934,-1.6352,-10.3070,0.2466,0.8751,-0.3872,-0.6574
13942,-1.7095,-10.3980,0.2634,0.8903,-0.4008,-0.6747
13950,-1.6951,-10.4794,0.2418,0.9113,-0.4207,-0.6891
13958,-1.6951,-10.4746,0.3232,0.9257,-0.4402,-0.6984
13966,-1.6688,-10.5560,0.3496,0.9454,-0.4546,-0.7123
13974,-1.7214,-10.6303,0.1820,0.9585,-0.4679,-0.7216
13982,-1.7669,-10.7835,0.2801,0.9651,-0.4834,-0.7352
13990,-1.8028,-10.8074,0.2346,0.9832,-0.4994,-0.7477
13999,-1.8052,-10.8481,0.1676,0.9971,-0.5100,-0.7610
14006,-1.8148,-10.9846,0.1604,1.0043,-0.5191,-0.7663
14014,-1.8435,-10.9774,0.1915,1.0131,-0.5329,-0.7805
14022,-1.8555,-11.1642,0.2610,1.0237,-0.5425,-0.7885
14030,-1.8316,-11.1737,0.1963,1.0309,-0.5481,-0.7997
14039,-1.8699,-11.2001,0.1748,1.0403,-0.5548,-0.8074
14046,-1.9369,-11.3054,0.1173,1.0424,-0.5596,-0.8186
14054,-1.9632,-11.3749,0.2370,1.0523,-0.5665,-0.8282
14062,-1.9154,-11.4539,0.1317,1.0560,-0.5721,-0.8340
14070,-1.9728,-11.5161,0.1700,1.0653,-0.5750,-0.8431
14078,-2.0351,-11.5281,0.1508,1.0704,-0.5814,-0.8519
14087,-2.0016,-11.6191,0.1628,1.0800,-0.5806,-0.8639
14094,-1.9417,-11.6358,0.1532,1.0872,-0.5777,-0.8729
14102,-1.9201,-11.7005,0.0599,1.0901,-0.5793,-0.8839
14110,-2.0135,-11.6933,0.1173,1.1002,-0.5742,-0.8956
14118,-1.9632,-11.6813,0.1317,1.1061,-0.5670,-0.9004
14127,-1.9776,-11.7819,0.1389,1.1072,-0.5612,-0.9100
14134,-1.9513,-11.7867,0.1915,1.1103,-0.5553,-0.9177
14142,-2.0446,-11.8274,0.0742,1.1117,-0.5457,-0.9246
14150,-2.0183,-11.8082,0.1484,1.1088,-0.5327,-0.9321
14158,-2.0087,-11.8154,0.0910,1.1151,-0.5273,-0.9337
14167,-1.9992,-11.8082,0.1844,1.1146,-0.5215,-0.9419
14175,-2.0494,-11.8154,0.2059,1.1170,-0.5081,-0.9417
14182,-2.0566,-11.8920,0.1652,1.1183,-0.5020,-0.9411
14190,-2.0806,-11.8489,0.0910,1.1197,-0.4922,-0.9467
14198,-2.0686,-11.8321,0.1532,1.1226,-0.4831,-0.9430
14206,-2.0494,-11.7747,0.0622,1.1234,-0.4706,-0.9483
14215,-2.0087,-11.8034,0.0838,1.1231,-0.4594,-0.9457
14222,-2.0446,-11.7867,0.1269,1.1242,-0.4455,-0.9422
14230,-2.0614,-11.7531,0.1030,1.1175,-0.4303,-0.9390
14238,-2.0399,-11.7699,0.0670,1.1181,-0.4159,-0.9393
14246,-2.0877,-11.6550,0.1077,1.1143,-0.3978,-0.9305
14255,-2.0686,-11.7124,0.0814,1.1072,-0.3792,-0.9233
14263,-2.0375,-11.6741,0.0910,1.1018,-0.3637,-0.9193
14270,-1.9920,-11.6526,0.1365,1.0941,-0.3485,-0.9084
14278,-2.0255,-11.5736,0.0239,1.0890,-0.3280,-0.8998
14286,-2.0351,-11.5161,0.0431,1.0802,-0.3104,-0.8887
14295,-2.0375,-11.4706,0.1556,1.0725,-0.2963,-0.8764
14303,-1.9920,-11.4922,0.0958,1.0658,-0.2859,-0.8692
14310,-2.0446,-11.4012,0.0742,1.0512,-0.2622,-0.8489
14318,-1.9704,-11.2408,0.0287,1.0437,-0.2521,-0.8359
14326,-1.9896,-11.2264,0.0096,1.0280,-0.2358,-0.8228
14334,-2.0183,-11.1929,0.0120,1.0155,-0.2276,-0.8087
14343,-1.9800,-11.0971,0.0718,1.0022,-0.2156,-0.7946
14350,-2.0327,-11.0971,0.1030,0.9910,-0.2020,-0.7797
14358,-1.9417,-10.9583,0.1413,0.9771,-0.1879,-0.7615
14366,-1.8962,-10.8577,0.0311,0.9630,-0.1825,-0.7480
14374,-1.9154,-10.8362,0.1077,0.9494,-0.1724,-0.7341
14383,-1.9345,-10.7332,0.0694,0.9342,-0.1652,-0.7189
14391,-1.8699,-10.7021,0.0718,0.9161,-0.1572,-0.7056
14398,-1.8651,-10.5249,-0.0527,0.9022,-0.1500,-0.6909
14406,-1.9225,-10.5034,0.1197,0.8847,-0.1426,-0.6702
14414,-1.8555,-10.4196,0.0479,0.8620,-0.1367,-0.6576
14423,-1.8196,-10.3908,0.1006,0.8420,-0.1362,-0.6392
14431,-1.8076,-10.3046,0.0694,0.8242,-0.1303,-0.6235
14438,-1.8124,-10.2065,0.0000,0.8074,-0.1266,-0.6025
14446,-1.8100,-10.1275,0.1293,0.7853,-0.1311,-0.5841
14454,-1.8100,-10.0197,0.1293,0.7661,-0.1231,-0.5670
14462,-1.7741,-9.9766,0.0335,0.7477,-0.1260,-0.5484
14471,-1.7406,-9.9359,0.0000,0.7229,-0.1247,-0.5319
14479,-1.7861,-9.8737,0.1796,0.7029,-0.1255,-0.5111
14486,-1.7406,-9.8210,0.0215,0.6803,-0.1242,-0.4900
14494,-1.7861,-9.7683,0.0934,0.6560,-0.1226,-0.4684
14502,-1.7526,-9.7157,0.0958,0.6352,-0.1274,-0.4474
14511,-1.7238,-9.5624,0.1125,0.6086,-0.1290,-0.4226
14519,-1.6975,-9.4834,0.0455,0.5801,-0.1298,-0.3997
14526,-1.6903,-9.4212,-0.0072,0.5582,-0.1300,-0.3778
14534,-1.6616,-9.4308,-0.0144,0.5345,-0.1271,-0.3541
14542,-1.6568,-9.3781,0.0742,0.5092,-0.1314,-0.3312
14551,-1.6975,-9.2440,-0.0024,0.4788,-0.1306,-0.3070
14559,-1.6448,-9.2057,0.0024,0.4538,-0.1327,-0.2843
14567,-1.7071,-9.1578,0.0646,0.4263,-0.1332,-0.2601
14574,-1.6807,-9.1171,0.0192,0.4005,-0.1335,-0.2366
14582,-1.6783,-9.0573,0.1293,0.3736,-0.1340,-0.2092
14590,-1.6305,-9.0381,0.0383,0.3480,-0.1322,-0.1852
14599,-1.6520,-9.0046,-0.0048,0.3174,-0.1316,-0.1601
14607,-1.6305,-9.0166,-0.0096,0.2904,-0.1279,-0.1332
14614,-1.6233,-8.9687,0.0646,0.2643,-0.1234,-0.1034
14622,-1.6376,-8.8801,0.0168,0.2316,-0.1196,-0.0754
14630,-1.6472,-8.8609,0.1030,0.1993,-0.1138,-0.0493
14639,-1.6209,-8.8131,0.0814,0.1684,-0.1119,-0.0208
14647,-1.6233,-8.8490,0.0479,0.1442,-0.1047,0.0099
14655,-1.5969,-8.8155,0.0383,0.1119,-0.0989,0.0360
14662,-1.5945,-8.8753,0.0646,0.0837,-0.0866,0.0679
14670,-1.6209,-8.7388,0.0479,0.0578,-0.0794,0.0951
14679,-1.5921,-8.8514,0.0455,0.0213,-0.0650,0.1234
14687,-1.5658,-8.8322,0.1269,-0.0035,-0.0578,0.1500
14695,-1.5921,-8.7939,0.0599,-0.0365,-0.0384,0.1783
14702,-1.5562,-8.8753,0.0503,-0.0663,-0.0242,0.2065
14710,-1.6305,-8.8562,0.1077,-0.1010,-0.0115,0.2350
14718,-1.6305,-8.8825,0.0072,-0.1306,0.0024,0.2635
14727,-1.6328,-8.8490,0.0958,-0.1596,0.0179,0.2899
14735,-1.6209,-8.9854,0.0503,-0.1873,0.0330,0.3206
14743,-1.6185,-8.9280,0.0814,-0.2129,0.0533,0.3493
14750,-1.6041,-9.0405,0.1245,-0.2358,0.0698,0.3757
14758,-1.6065,-9.0429,0.0335,-0.2697,0.0853,0.3989
14767,-1.6807,-9.1099,0.1604,-0.2952,0.1063,0.4261
14775,-1.6592,-9.2201,0.0455,-0.3243,0.1274,0.4474
14783,-1.6472,-9.2751,-0.0096,-0.3533,0.1495,0.4735
14790,-1.6305,-9.3134,0.0886,-0.3840,0.1644,0.4935
14798,-1.6664,-9.3398,0.0670,-0.4135,0.1919,0.5191
14807,-1.7095,-9.3374,0.0503,-0.4351,0.2113,0.5431
14815,-1.6783,-9.3972,0.1915,-0.4631,0.2273,0.5652
14823,-1.6975,-9.4834,0.0862,-0.4868,0.2467,0.5905
14831,-1.6448,-9.5720,0.1125,-0.5119,0.2710,0.6113
14838,-1.7406,-9.6558,0.1844,-0.5329,0.2896,0.6270
14846,-1.6999,-9.7157,0.1341,-0.5572,0.3075,0.6459
14855,-1.6855,-9.7779,0.2466,-0.5806,0.3280,0.6598
14863,-1.6783,-9.8330,0.0982,-0.5998,0.3432,0.6768
14871,-1.7286,-9.9192,0.1077,-0.6227,0.3576,0.6923
14878,-1.6424,-10.0533,0.1628,-0.6387,0.3760,0.7053
14886,-1.7047,-10.0317,0.1987,-0.6536,0.3901,0.7155
14895,-1.7502,-10.1323,0.2490,-0.6704,0.4096,0.7285
14903,-1.6855,-10.1825,0.1269,-0.6907,0.4213,0.7421
14911,-1.7813,-10.2065,0.2873,-0.7024,0.4333,0.7549
14919,-1.8052,-10.3094,0.2274,-0.7186,0.4426,0.7679
14926,-1.7454,-10.4267,0.2466,-0.7306,0.4559,0.7786
14935,-1.7861,-10.4962,0.2251,-0.7488,0.4703,0.7879
14943,-1.8172,-10.6446,0.1580,-0.7634,0.4799,0.7941
14951,-1.8340,-10.6255,0.2538,-0.7821,0.4895,0.8037
14959,-1.8124,-10.7260,0.1796,-0.7986,0.4980,0.8106
14966,-1.8699,-10.7883,0.2729,-0.8183,0.5063,0.8210
14974,-1.8435,-10.7835,0.1748,-0.8322,0.5135,0.8332
14983,-1.8411,-10.8960,0.1676,-0.8489,0.5161,0.8380
14991,-1.8364,-10.9511,0.2059,-0.8665,0.5271,0.8487
14999,-1.8651,-10.9846,0.2873,-0.8769,0.5231,0.8551
15006,-1.8483,-11.0564,0.1915,-0.8934,0.5260,0.8620
15014,-1.8699,-11.1594,0.3448,-0.9086,0.5273,0.8684
15023,-1.8986,-11.1522,0.2179,-0.9238,0.5249,0.8735
15031,-1.8866,-11.2480,0.2586,-0.9393,0.5292,0.8767
15039,-1.9273,-11.3102,0.2131,-0.9537,0.5273,0.8825
15047,-1.9609,-11.3246,0.2993,-0.9705,0.5316,0.8881
15054,-1.8459,-11.4060,0.3615,-0.9859,0.5279,0.8911
15063,-1.9154,-11.3964,0.3208,-1.0051,0.5252,0.8958
15071,-1.9417,-11.4395,0.2682,-1.0200,0.5177,0.8993
15079,-1.9321,-11.4467,0.3017,-1.0360,0.5169,0.9036
15087,-1.9130,-11.5688,0.3639,-1.0491,0.5103,0.9073
15094,-1.9561,-11.5903,0.3184,-1.0643,0.5041,0.9108
15102,-1.9058,-11.6191,0.2825,-1.0762,0.4986,0.9089
15111,-1.9513,-11.6693,0.3855,-1.0906,0.5044,0.9086
15119,-1.9513,-11.6262,0.3256,-1.0994,0.4932,0.9073
15127,-1.8579,-11.6741,0.3807,-1.1095,0.4871,0.9081
15135,-1.9273,-11.6837,0.3807,-1.1197,0.4815,0.9076
15142,-1.9273,-11.6765,0.2993,-1.1295,0.4671,0.9017
15151,-1.9225,-11.7005,0.3448,-1.1306,0.4604,0.8977
15159,-1.9010,-11.6286,0.4549,-1.1354,0.4447,0.8937
15167,-1.8962,-11.6837,0.4190,-1.1407,0.4319,0.8876
15175,-1.9106,-11.6693,0.3711,-1.1381,0.4186,0.8833
15182,-1.8794,-11.5951,0.4717,-1.1399,0.4050,0.8769
15191,-1.8890,-11.6334,0.3400,-1.1370,0.3962,0.8668
15199,-1.8794,-11.5496,0.3304,-1.1367,0.3808,0.8607
15207,-1.8771,-11.5736,0.3903,-1.1354,0.3635,0.8497
15215,-1.9058,-11.6119,0.3855,-1.1357,0.3499,0.8434
15223,-1.8675,-11.5089,0.3783,-1.1327,0.3376,0.8388
15230,-1.8292,-11.5209,0.3998,-1.1245,0.3243,0.8279
15239,-1.9010,-11.4826,0.3807,-1.1197,0.3147,0.8188
15247,-1.8794,-11.3772,0.4980,-1.1103,0.3016,0.8087
15255,-1.8435,-11.3988,0.3352,-1.1013,0.2904,0.7997
15263,-1.8411,-11.3437,0.3424,-1.0952,0.2774,0.7919
15270,-1.7909,-11.2551,0.4334,-1.0802,0.2635,0.7810
15279,-1.7885,-11.2336,0.4453,-1.0701,0.2571,0.7717
15287,-1.7502,-11.1618,0.4597,-1.0608,0.2425,0.7613
15295,-1.7885,-11.1019,0.4429,-1.0469,0.2321,0.7504
15303,-1.7933,-11.0349,0.4022,-1.0315,0.2246,0.7365
15311,-1.6999,-11.0516,0.4645,-1.0192,0.2169,0.7285
15319,-1.7549,-10.9870,0.4214,-1.0086,0.2126,0.7128
15327,-1.7621,-10.8912,0.3328,-0.9926,0.2052,0.7029
15335,-1.6999,-10.8098,0.3567,-0.9763,0.1993,0.6883
15343,-1.7095,-10.7643,0.3496,-0.9619,0.1990,0.6739
15351,-1.6879,-10.7045,0.3735,-0.9505,0.1924,0.6630
15358,-1.6879,-10.6877,0.4166,-0.9361,0.1865,0.6486
15367,-1.6807,-10.5704,0.3567,-0.9158,0.1793,0.6358
15375,-1.6807,-10.4651,0.3926,-0.8993,0.1841,0.6201
15383,-1.5945,-10.4244,0.3974,-0.8865,0.1804,0.6054
15391,-1.6041,-10.3501,0.4070,-0.8705,0.1769,0.5878
15399,-1.5658,-10.3190,0.3807,-0.8535,0.1759,0.5766
15407,-1.6233,-10.2783,0.3783,-0.8364,0.1740,0.5593
15415,-1.6017,-10.1921,0.3950,-0.8151,0.1729,0.5449
15423,-1.5634,-10.1275,0.2849,-0.7997,0.1713,0.5271
15431,-1.5443,-10.0652,0.3136,-0.7762,0.1724,0.5100
15439,-1.5706,-9.9934,0.3879,-0.7557,0.1727,0.4903
15447,-1.5251,-9.8952,0.3376,-0.7290,0.1740,0.4727
15455,-1.4916,-9.8426,0.3591,-0.7085,0.1783,0.4535
15463,-1.5275,-9.8210,0.4022,-0.6813,0.1756,0.4346
15471,-1.4533,-9.7037,0.5052,-0.6590,0.1767,0.4125
15479,-1.4916,-9.6271,0.4166,-0.6267,0.1791,0.3909
15488,-1.4461,-9.5816,0.4405,-0.6022,0.1801,0.3720
15495,-1.4174,-9.5600,0.2849,-0.5732,0.1820,0.3467
15503,-1.4724,-9.5457,0.4597,-0.5428,0.1823,0.3251
15511,-1.4269,-9.4643,0.4214,-0.5124,0.1828,0.2982
15519,-1.4341,-9.3948,0.3543,-0.4812,0.1815,0.2814
15527,-1.4413,-9.3661,0.3591,-0.4485,0.1849,0.2545
15535,-1.4389,-9.2919,0.4741,-0.4151,0.1825,0.2284
15543,-1.4509,-9.2608,0.2945,-0.3864,0.1831,0.2065
15551,-1.4222,-9.2009,0.5004,-0.3480,0.1796,0.1828
15559,-1.3431,-9.2129,0.4501,-0.3144,0.1799,0.1545
15567,-1.3767,-9.1554,0.4693,-0.2774,0.1735,0.1348
15576,-1.4054,-9.1267,0.4645,-0.2422,0.1719,0.1085
15583,-1.3431,-9.1578,0.3974,-0.2070,0.1708,0.0837
15591,-1.3958,-9.0621,0.4717,-0.1671,0.1681,0.0610
15599,-1.4413,-9.1051,0.3950,-0.1335,0.1631,0.0346
15607,-1.3695,-9.0764,0.4812,-0.0951,0.1569,0.0112
15616,-1.3934,-9.0142,0.4262,-0.0549,0.1516,-0.0128
15623,-1.3551,-9.0812,0.4453,-0.0240,0.1420,-0.0405
15631,-1.4341,-9.0405,0.3831,0.0184,0.1308,-0.0674
15639,-1.4198,-9.0668,0.4238,0.0565,0.1247,-0.0933
15647,-1.3647,-9.1171,0.4669,0.0893,0.1119,-0.1143
15655,-1.3551,-9.1171,0.4166,0.1239,0.1013,-0.1394
15664,-1.4078,-9.2129,0.3448,0.1609,0.0837,-0.1631
15671,-1.3934,-9.1339,0.4310,0.1972,0.0687,-0.1865
15679,-1.4437,-9.1698,0.4334,0.2244,0.0570,-0.2113
15687,-1.4222,-9.1506,0.3112,0.2601,0.0384,-0.2356
15695,-1.3815,-9.2536,0.3998,0.2936,0.0192,-0.2601
15704,-1.4054,-9.2416,0.4357,0.3288,0.0053,-0.2785
15711,-1.5012,-9.2320,0.3711,0.3603,-0.0163,-0.3024
15719,-1.4581,-9.3230,0.3041,0.3909,-0.0368,-0.3214
15727,-1.4557,-9.3326,0.4070,0.4173,-0.0573,-0.3427
15735,-1.5012,-9.4068,0.3448,0.4503,-0.0765,-0.3643
15744,-1.4557,-9.4308,0.4142,0.4748,-0.0933,-0.3856
15751,-1.5682,-9.5265,0.3543,0.5028,-0.1178,-0.4074
15759,-1.5131,-9.5265,0.4022,0.5284,-0.1386,-0.4285
15767,-1.4629,-9.6223,0.3424,0.5593,-0.1607,-0.4458
15775,-1.4844,-9.6247,0.3184,0.5841,-0.1785,-0.4668
15783,-1.5107,-9.7420,0.2538,0.6097,-0.1961,-0.4858
15792,-1.5754,-9.7995,0.3280,0.6344,-0.2153,-0.5036
15799,-1.6328,-9.7659,0.3184,0.6584,-0.2353,-0.5265
15807,-1.5562,-9.9072,0.3543,0.6835,-0.2542,-0.5380
15815,-1.6041,-10.0102,0.2993,0.7093,-0.2699,-0.5585
15823,-1.6927,-10.0269,0.3232,0.7285,-0.2888,-0.5721
15832,-1.6041,-10.1538,0.2825,0.7493,-0.3051,-0.5873
15839,-1.6688,-10.1418,0.2203,0.7637,-0.3235,-0.6017
15847,-1.6448,-10.2975,0.2610,0.7853,-0.3389,-0.6150
15855,-1.6616,-10.2687,0.2203,0.8021,-0.3565,-0.6257
15863,-1.6879,-10.4148,0.3280,0.8183,-0.3712,-0.6387
15872,-1.6951,-10.4674,0.2466,0.8327,-0.3845,-0.6483
15880,-1.6951,-10.5489,0.1820,0.8460,-0.3994,-0.6632
15887,-1.7310,-10.5273,0.2155,0.8601,-0.4146,-0.6723
15895,-1.7909,-10.6422,0.1915,0.8713,-0.4215,-0.6832
15903,-1.7597,-10.6494,0.2610,0.8865,-0.4354,-0.6907
15911,-1.7334,-10.7763,0.1772,0.8974,-0.4410,-0.7029
15920,-1.8316,-10.8122,0.1844,0.9025,-0.4522,-0.7107
15927,-1.8411,-10.9032,0.2466,0.9129,-0.4671,-0.7200
15935,-1.8914,-10.9439,0.1006,0.9196,-0.4700,-0.7269
15943,-1.8914,-10.9487,0.1820,0.9300,-0.4791,-0.7365
15951,-1.8316,-10.9726,0.2251,0.9358,-0.4844,-0.7440
15960,-1.8938,-11.1306,0.2322,0.9403,-0.4914,-0.7490
15968,-1.9297,-11.0899,0.1508,0.9497,-0.4967,-0.7605
15975,-1.8794,-11.1809,0.1987,0.9566,-0.4983,-0.7695
15983,-1.8747,-11.2049,0.0790,0.9643,-0.4996,-0.7749
15991,-1.9249,-11.2527,0.2155,0.9694,-0.5105,-0.7837
16000,-1.9824,-11.3342,0.1125,0.9747,-0.5044,-0.7898
16008,-1.8986,-11.2671,0.2203,0.9814,-0.5049,-0.7962
16015,-1.9489,-11.3318,0.1053,0.9838,-0.5036,-0.8079
16023,-1.9680,-11.3318,0.1604,0.9902,-0.5044,-0.8119
16031,-1.8747,-11.3701,0.0694,0.9960,-0.4986,-0.8196
16039,-1.9609,-11.4299,0.1341,0.9963,-0.4948,-0.8204
16048,-1.9345,-11.4179,0.1604,0.9963,-0.4890,-0.8274
16056,-1.9992,-11.4515,0.1580,1.0008,-0.4828,-0.8300
16063,-1.9561,-11.4227,0.0982,1.0038,-0.4772,-0.8383
16071,-1.9680,-11.4539,0.1173,1.0038,-0.4676,-0.8378
16079,-1.9704,-11.4610,0.1437,1.0104,-0.4626,-0.8418
16088,-1.9704,-11.4610,0.1293,1.0051,-0.4487,-0.8468
16096,-1.9609,-11.4491,0.0479,1.0107,-0.4397,-0.8508
16103,-1.9561,-11.4012,0.1293,1.0120,-0.4306,-0.8476
16111,-1.9561,-11.4802,0.0694,1.0118,-0.4226,-0.8497
16119,-1.9992,-11.4108,0.1389,1.0094,-0.4114,-0.8458
16128,-1.9920,-11.3725,0.1676,1.0128,-0.3976,-0.8458
16136,-1.9345,-11.4084,0.0958,1.0091,-0.3898,-0.8463
16144,-1.9561,-11.3270,0.1628,1.0104,-0.3730,-0.8404
16151,-1.9225,-11.3318,0.1245,1.0070,-0.3611,-0.8375
16159,-1.9800,-11.3054,0.1269,1.0014,-0.3504,-0.8306
16167,-1.9537,-11.3054,0.0742,0.9987,-0.3325,-0.8236
16176,-1.9249,-11.3102,0.0742,0.9896,-0.3214,-0.8140
16184,-1.9585,-11.2288,0.0503,0.9840,-0.3107,-0.8090
16191,-1.9776,-11.2049,0.1077,0.9824,-0.2958,-0.7983
16199,-1.9297,-11.1139,0.0144,0.9726,-0.2779,-0.7871
16207,-1.9513,-11.1235,0.1389,0.9614,-0.2705,-0.7754
16216,-1.9489,-11.0923,0.1269,0.9555,-0.2555,-0.7634
16224,-1.9824,-10.9870,0.0886,0.9425,-0.2422,-0.7528
16232,-1.9201,-10.9152,0.1245,0.9353,-0.2302,-0.7410
16239,-1.8579,-10.9008,0.2035,0.9196,-0.2220,-0.7240
16247,-1.8794,-10.8673,0.0479,0.9089,-0.2076,-0.7133
16256,-1.8842,-10.8625,0.0311,0.9004,-0.1982,-0.7003
16264,-1.8651,-10.7045,0.1413,0.8857,-0.1857,-0.6869
16272,-1.8914,-10.6829,0.0790,0.8751,-0.1780,-0.6720
16279,-1.8459,-10.6925,0.1604,0.8577,-0.1625,-0.6566
16287,-1.8220,-10.5608,0.1580,0.8482,-0.1567,-0.6459
16295,-1.8914,-10.5105,0.0910,0.8308,-0.1535,-0.6294
16304,-1.8340,-10.5034,0.0503,0.8127,-0.1484,-0.6147
16312,-1.8340,-10.3741,0.0503,0.7981,-0.1402,-0.5995
16320,-1.7957,-10.3477,0.1293,0.7797,-0.1338,-0.5844
16327,-1.8387,-10.2663,0.1628,0.7663,-0.1340,-0.5718
16335,-1.8435,-10.2256,0.0958,0.7512,-0.1279,-0.5526
16344,-1.8172,-10.1730,0.0982,0.7293,-0.1258,-0.5369
16352,-1.7645,-10.0509,0.1077,0.7136,-0.1199,-0.5167
16360,-1.7957,-10.0221,0.1820,0.6968,-0.1210,-0.4999
16367,-1.7597,-9.9934,0.0455,0.6771,-0.1204,-0.4812
16375,-1.8124,-9.9407,0.1772,0.6563,-0.1223,-0.4650
16384,-1.6640,-9.8689,0.1532,0.6331,-0.1140,-0.4487
16392,-1.7669,-9.7540,0.1293,0.6134,-0.1140,-0.4295
16400,-1.7406,-9.7420,0.1341,0.5939,-0.1154,-0.4090
16408,-1.7310,-9.6582,0.0335,0.5788,-0.1151,-0.3914
16415,-1.7430,-9.5912,0.0000,0.5521,-0.1172,-0.3725
16423,-1.7071,-9.5816,0.1125,0.5340,-0.1140,-0.3493
16432,-1.7573,-9.4858,0.1556,0.5105,-0.1191,-0.3317
16440,-1.6640,-9.4475,0.1030,0.4879,-0.1180,-0.3099
16448,-1.6688,-9.4403,0.0670,0.4668,-0.1170,-0.2851
16455,-1.6831,-9.3206,0.1389,0.4373,-0.1194,-0.2662
16463,-1.7119,-9.3446,0.0910,0.4151,-0.1172,-0.2422
16472,-1.6568,-9.2225,0.0814,0.3890,-0.1191,-0.2204
16480,-1.7286,-9.2632,0.0479,0.3691,-0.1218,-0.1998
16488,-1.6927,-9.2177,0.1101,0.3429,-0.1146,-0.1716
16496,-1.6424,-9.0932,0.1030,0.3136,-0.1143,-0.1511
16503,-1.6281,-9.1171,-0.0239,0.2915,-0.1116,-0.1236
16512,-1.6520,-9.1075,0.0503,0.2649,-0.1106,-0.0997
16520,-1.6472,-9.0405,0.0287,0.2388,-0.1116,-0.0778
16528,-1.6328,-9.0357,0.0311,0.2097,-0.1018,-0.0520
16536,-1.6664,-9.0046,0.0239,0.1817,-0.0983,-0.0261
16543,-1.6544,-9.0357,0.0790,0.1561,-0.0954,0.0016
16551,-1.6616,-9.0621,0.0694,0.1287,-0.0885,0.0226
16560,-1.6376,-9.0692,0.0168,0.1039,-0.0810,0.0458
16568,-1.6688,-8.9854,0.0431,0.0794,-0.0754,0.0714
16576,-1.6137,-8.9783,0.1317,0.0493,-0.0650,0.0943
16584,-1.6185,-9.0477,0.0694,0.0234,-0.0584,0.1204
16591,-1.5993,-9.0477,0.0766,-0.0056,-0.0442,0.1447
16600,-1.6185,-8.9687,0.1006,-0.0320,-0.0320,0.1729
16608,-1.5706,-9.0309,0.0311,-0.0594,-0.0229,0.1974
16616,-1.5945,-9.0644,0.0455,-0.0877,-0.0067,0.2241
16624,-1.5969,-9.0597,0.0646,-0.1138,0.0051,0.2505
16631,-1.6903,-9.0285,0.0622,-0.1372,0.0221,0.2777
16640,-1.6472,-9.1051,0.0599,-0.1609,0.0362,0.2955
16648,-1.6089,-9.1554,0.0790,-0.1881,0.0565,0.3232
16656,-1.6089,-9.2296,0.1269,-0.2134,0.0754,0.3435
16664,-1.6568,-9.2177,0.0311,-0.2372,0.0954,0.3651
16671,-1.6185,-9.2296,0.1173,-0.2614,0.1140,0.3914
16679,-1.6281,-9.2632,0.0838,-0.2904,0.1300,0.4101
16688,-1.6520,-9.3158,0.1030,-0.3110,0.1484,0.4303
16696,-1.6759,-9.3494,0.1077,-0.3365,0.1689,0.4572
16704,-1.6688,-9.3518,0.0575,-0.3592,0.1905,0.4748
16712,-1.6544,-9.4643,0.1006,-0.3824,0.2078,0.4943
16719,-1.7119,-9.5026,0.0359,-0.4069,0.2302,0.5153
16728,-1.7142,-9.5457,0.1125,-0.4271,0.2478,0.5359
16736,-1.6927,-9.6103,0.1413,-0.4453,0.2673,0.5524
16744,-1.6640,-9.6414,0.1365,-0.4706,0.2891,0.5710
16752,-1.7095,-9.7300,0.0982,-0.4858,0.3064,0.5873
16759,-1.6759,-9.7636,0.1700,-0.5052,0.3280,0.6019
16768,-1.7119,-9.7540,0.1532,-0.5233,0.3464,0.6182
16776,-1.6735,-9.8450,0.1460,-0.5396,0.3600,0.6328
16784,-1.6712,-9.9048,0.2107,-0.5516,0.3792,0.6414
16792,-1.7406,-9.9886,0.1365,-0.5697,0.3922,0.6531
16800,-1.7382,-10.0126,0.2682,-0.5836,0.4088,0.6686
16807,-1.7286,-10.0844,0.2442,-0.5985,0.4258,0.6781
16816,-1.7741,-10.2161,0.2227,-0.6177,0.4381,0.6861
16824,-1.7478,-10.2328,0.1891,-0.6366,0.4538,0.6925
16832,-1.7573,-10.3094,0.2203,-0.6526,0.4615,0.7035
16840,-1.7382,-10.3238,0.3089,-0.6640,0.4732,0.7115
16847,-1.8124,-10.3669,0.2969,-0.6819,0.4834,0.7248
16856,-1.8076,-10.4339,0.2897,-0.6949,0.4871,0.7293
16864,-1.7621,-10.5919,0.2418,-0.7099,0.4906,0.7381
16872,-1.7573,-10.5991,0.2849,-0.7258,0.4940,0.7440
16880,-1.7717,-10.6518,0.1939,-0.7418,0.4951,0.7544
16888,-1.7957,-10.7524,0.2418,-0.7573,0.5020,0.7600
16896,-1.8076,-10.7356,0.2801,-0.7741,0.5002,0.7645
16904,-1.7741,-10.8314,0.2538,-0.7919,0.4986,0.7706
16912,-1.8411,-10.8002,0.2466,-0.8039,0.5012,0.7767
16920,-1.8723,-10.9104,0.2562,-0.8252,0.4916,0.7807
16928,-1.9417,-10.8601,0.1748,-0.8383,0.4911,0.7898
16935,-1.8603,-10.9511,0.3448,-0.8564,0.4847,0.7946
16944,-1.8723,-11.0014,0.2969,-0.8721,0.4770,0.8018
16952,-1.8890,-11.0564,0.2394,-0.8879,0.4735,0.8037
16960,-1.8699,-11.1043,0.2586,-0.9004,0.4631,0.8084
16968,-1.8651,-11.0971,0.1963,-0.9158,0.4549,0.8108
16976,-1.8675,-11.0899,0.2346,-0.9286,0.4421,0.8130
16984,-1.8507,-11.1426,0.3232,-0.9433,0.4394,0.8212
16992,-1.8914,-11.1953,0.2969,-0.9601,0.4247,0.8212
17000,-1.8771,-11.2623,0.2442,-0.9795,0.4183,0.8228
17008,-1.9058,-11.1905,0.3424,-0.9862,0.4040,0.8263
17016,-1.8603,-11.2623,0.2777,-0.9998,0.3946,0.8292
17024,-1.8555,-11.2551,0.2610,-1.0091,0.3810,0.8311
17032,-1.8699,-11.2216,0.3591,-1.0118,0.3648,0.8316
17040,-1.8723,-11.3629,0.3065,-1.0187,0.3547,0.8324
17048,-1.8986,-11.3461,0.3424,-1.0245,0.3408,0.8271
17056,-1.8579,-11.2958,0.3376,-1.0259,0.3317,0.8263
17064,-1.8818,-11.2958,0.4094,-1.0291,0.3168,0.8204
17072,-1.8220,-11.3796,0.2897,-1.0360,0.3070,0.8146
17080,-1.8890,-11.2695,0.3304,-1.0341,0.2976,0.8074
17088,-1.8747,-11.2934,0.3735,-1.0349,0.2840,0.8013
17096,-1.8004,-11.3365,0.3879,-1.0379,0.2763,0.7959
17104,-1.8052,-11.2719,0.3017,-1.0341,0.2614,0.7911
17112,-1.8220,-11.2623,0.3041,-1.0288,0.2462,0.7834
17120,-1.8387,-11.2815,0.3639,-1.0245,0.2401,0.7775
17128,-1.7909,-11.2863,0.3591,-1.0190,0.2324,0.7687
17136,-1.8292,-11.1163,0.3496,-1.0102,0.2217,0.7631
17144,-1.8052,-11.1235,0.3160,-1.0059,0.2134,0.7517
17153,-1.8004,-11.1354,0.3855,-0.9944,0.2054,0.7405
17160,-1.8172,-11.0852,0.3160,-0.9870,0.1988,0.7338
17168,-1.7789,-11.1187,0.3950,-0.9785,0.1873,0.7210
17176,-1.7526,-11.0085,0.3759,-0.9723,0.1847,0.7096
17184,-1.7693,-10.9846,0.3950,-0.9611,0.1820,0.7029
17192,-1.7214,-10.9080,0.4238,-0.9553,0.1796,0.6933
17200,-1.7573,-10.8290,0.2658,-0.9406,0.1812,0.6797
17208,-1.7430,-10.8074,0.3424,-0.9270,0.1777,0.6702
17216,-1.7214,-10.8050,0.4405,-0.9164,0.1772,0.6592
17224,-1.7095,-10.7643,0.3519,-0.9033,0.1729,0.6446
17232,-1.6927,-10.7069,0.3831,-0.8849,0.1761,0.6390
17241,-1.6688,-10.5967,0.4142,-0.8756,0.1727,0.6235
17248,-1.7166,-10.6087,0.3879,-0.8615,0.1740,0.6145
17256,-1.6759,-10.5417,0.3543,-0.8452,0.1796,0.5995
17264,-1.6712,-10.5225,0.3448,-0.8306,0.1796,0.5878
17272,-1.6137,-10.4004,0.4238,-0.8175,0.1887,0.5748
17281,-1.6185,-10.3573,0.3232,-0.7989,0.1921,0.5617
17288,-1.6424,-10.2951,0.3903,-0.7871,0.1982,0.5460
17296,-1.6328,-10.2831,0.4166,-0.7682,0.1977,0.5356
17304,-1.6137,-10.2400,0.3711,-0.7520,0.1977,0.5188
17312,-1.6496,-10.2137,0.4597,-0.7312,0.2060,0.5065
17320,-1.6305,-10.1059,0.2825,-0.7171,0.2094,0.4876
17328,-1.6352,-10.0149,0.3903,-0.6971,0.2172,0.4700
17336,-1.5874,-9.9934,0.3232,-0.6789,0.2140,0.4557
17344,-1.5323,-9.9742,0.4022,-0.6571,0.2174,0.4354
17352,-1.5107,-9.9383,0.3807,-0.6336,0.2252,0.4223
17360,-1.5730,-9.8737,0.3041,-0.6113,0.2270,0.4034
17369,-1.4844,-9.8043,0.3879,-0.5875,0.2273,0.3805
17376,-1.4796,-9.7396,0.4238,-0.5638,0.2308,0.3659
17384,-1.5012,-9.7085,0.3831,-0.5436,0.2284,0.3408
17392,-1.5155,-9.6319,0.4094,-0.5183,0.2281,0.3256
17400,-1.4629,-9.6151,0.4214,-0.4863,0.2326,0.3040
17409,-1.4700,-9.5553,0.3855,-0.4583,0.2260,0.2819
17416,-1.4605,-9.5026,0.3831,-0.4354,0.2289,0.2641
17424,-1.4485,-9.4715,0.3448,-0.4080,0.2278,0.2403
17432,-1.4868,-9.4284,0.3160,-0.3821,0.2222,0.2158
17440,-1.4150,-9.4140,0.3807,-0.3515,0.2209,0.1972
17448,-1.4533,-9.3470,0.4238,-0.3208,0.2134,0.1756
17457,-1.3743,-9.3446,0.4310,-0.2904,0.2094,0.1514
17464,-1.4341,-9.2632,0.3472,-0.2617,0.2006,0.1260
17472,-1.4820,-9.2656,0.3974,-0.2316,0.2004,0.1082
17480,-1.3815,-9.2296,0.4429,-0.2017,0.1911,0.0839
17488,-1.4102,-9.2249,0.4645,-0.1687,0.1801,0.0608
17497,-1.3503,-9.2584,0.4381,-0.1394,0.1745,0.0397
17504,-1.4102,-9.1985,0.4381,-0.1074,0.1657,0.0147
17512,-1.4509,-9.2009,0.3879,-0.0783,0.1548,-0.0091
17520,-1.4341,-9.2368,0.3903,-0.0440,0.1436,-0.0290
17528,-1.3743,-9.2560,0.4094,-0.0176,0.1308,-0.0538
17537,-1.4222,-9.2033,0.3926,0.0184,0.1170,-0.0786
17545,-1.4269,-9.1842,0.4094,0.0482,0.1053,-0.0997
17552,-1.3982,-9.2249,0.4022,0.0767,0.0893,-0.1212
17560,-1.4269,-9.2703,0.3256,0.1071,0.0746,-0.1444
17568,-1.4533,-9.2512,0.4238,0.1402,0.0546,-0.1676
17576,-1.4365,-9.3039,0.3998,0.1681,0.0461,-0.1865
17585,-1.4916,-9.3111,0.3950,0.1985,0.0208,-0.2110
17592,-1.4772,-9.3374,0.3903,0.2302,0.0053,-0.2284
17600,-1.4533,-9.3039,0.4262,0.2558,-0.0224,-0.2473
17608,-1.4461,-9.3709,0.3831,0.2827,-0.0408,-0.2665
17616,-1.4988,-9.3613,0.3280,0.3120,-0.0629,-0.2840
17625,-1.4988,-9.3494,0.3663,0.3339,-0.0791,-0.3022
17633,-1.4557,-9.4786,0.3496,0.3627,-0.1039,-0.3190
17640,-1.4820,-9.5146,0.3567,0.3888,-0.1258,-0.3381
17648,-1.5251,-9.5122,0.3879,0.4170,-0.1450,-0.3584
17656,-1.4724,-9.5720,0.4070,0.4402,-0.1625,-0.3818
17665,-1.4700,-9.6103,0.3519,0.4631,-0.1863,-0.3970
17673,-1.4964,-9.6941,0.3926,0.4874,-0.2006,-0.4162
17680,-1.5395,-9.6462,0.3591,0.5145,-0.2196,-0.4322
17688,-1.5658,-9.8258,0.2658,0.5340,-0.2372,-0.4503
17696,-1.5754,-9.7875,0.2586,0.5556,-0.2539,-0.4660
17704,-1.5682,-9.8569,0.3591,0.5793,-0.2670,-0.4802
17713,-1.5945,-9.8952,0.3041,0.5963,-0.2801,-0.4972
17721,-1.6089,-9.9240,0.3400,0.6195,-0.2998,-0.5095
17728,-1.5610,-9.9982,0.2682,0.6339,-0.3118,-0.5252
17736,-1.6328,-10.0940,0.2634,0.6544,-0.3208,-0.5383
17744,-1.6424,-10.0868,0.2490,0.6718,-0.3347,-0.5484
17753,-1.6664,-10.2424,0.2346,0.6909,-0.3448,-0.5625
17761,-1.7119,-10.2472,0.2610,0.7037,-0.3528,-0.5748
17768,-1.6616,-10.3477,0.3424,0.7240,-0.3680,-0.5852
17776,-1.6975,-10.3477,0.1963,0.7392,-0.3722,-0.5947
17784,-1.6735,-10.4172,0.2682,0.7485,-0.3800,-0.6086
17793,-1.7238,-10.4770,0.2610,0.7626,-0.3901,-0.6193
17801,-1.7597,-10.4866,0.2083,0.7727,-0.3909,-0.6318
17809,-1.7597,-10.5967,0.2610,0.7845,-0.3960,-0.6419
17816,-1.7645,-10.6015,0.2322,0.7925,-0.4024,-0.6515
17824,-1.8004,-10.6925,0.2059,0.7975,-0.4082,-0.6587
17832,-1.8220,-10.6805,0.1724,0.8095,-0.4141,-0.6662
17841,-1.7454,-10.7978,0.2538,0.8188,-0.4159,-0.6720
17849,-1.8004,-10.8026,0.2227,0.8274,-0.4170,-0.6765
17856,-1.8483,-10.8194,0.1820,0.8348,-0.4231,-0.6875
17864,-1.7980,-10.8002,0.1915,0.8442,-0.4199,-0.6904
17872,-1.7549,-10.8673,0.2131,0.8516,-0.4218,-0.7011
17881,-1.8507,-10.8936,0.1413,0.8575,-0.4239,-0.7067
17889,-1.8004,-10.9990,0.2610,0.8639,-0.4253,-0.7144
17897,-1.7885,-10.9295,0.2035,0.8713,-0.4167,-0.7165
17904,-1.7813,-10.9774,0.1820,0.8761,-0.4151,-0.7234
17912,-1.8316,-10.9750,0.1556,0.8863,-0.4114,-0.7306
17921,-1.8196,-11.0684,0.2298,0.8926,-0.4093,-0.7357
17929,-1.8603,-11.0756,0.1556,0.8990,-0.4050,-0.7421
17937,-1.8651,-11.0468,0.2203,0.9022,-0.3962,-0.7498
17944,-1.8364,-11.0971,0.1365,0.9073,-0.3880,-0.7509
17952,-1.9130,-11.0899,0.1628,0.9097,-0.3848,-0.7570
17960,-1.9106,-11.1354,0.0120,0.9100,-0.3789,-0.7586
17969,-1.8890,-11.1546,0.0982,0.9124,-0.3698,-0.7645
17977,-1.9249,-11.1809,0.1796,0.9158,-0.3629,-0.7642
17984,-1.9321,-11.2312,0.1580,0.9172,-0.3536,-0.7650
17992,-1.9513,-11.1498,0.2179,0.9201,-0.3467,-0.7618
18000,-1.8531,-11.2192,0.1173,0.9206,-0.3459,-0.7661
18009,-1.9441,-11.1833,0.1508,0.9228,-0.3331,-0.7618
18017,-1.9513,-11.1809,0.1053,0.9233,-0.3238,-0.7600
18025,-1.9201,-11.1498,0.1125,0.9230,-0.3211,-0.7557
18032,-1.9465,-11.1330,0.1628,0.9284,-0.3150,-0.7528
18040,-1.9297,-11.0899,0.1317,0.9230,-0.3032,-0.7512
18049,-1.9058,-11.0971,0.1604,0.9236,-0.2987,-0.7472
18057,-1.9561,-10.9966,0.0838,0.9182,-0.2880,-0.7437
18065,-1.9321,-11.0109,0.1293,0.9150,-0.2787,-0.7338
18072,-1.8723,-10.9942,0.1413,0.9105,-0.2750,-0.7288
18080,-1.9609,-10.9774,0.1460,0.9070,-0.2638,-0.7234
18088,-1.9249,-10.9008,0.1221,0.8982,-0.2561,-0.7147
18097,-1.9369,-10.9032,0.1101,0.8903,-0.2537,-0.7075
18105,-1.8603,-10.8912,0.0982,0.8833,-0.2475,-0.6995
18113,-1.9249,-10.8457,0.1437,0.8756,-0.2353,-0.6909
18120,-1.9225,-10.8050,0.0646,0.8695,-0.2321,-0.6765
18128,-1.9225,-10.7643,0.1293,0.8580,-0.2212,-0.6659
18137,-1.8723,-10.7524,0.1053,0.8505,-0.2177,-0.6534
18145,-1.8938,-10.6326,0.1389,0.8346,-0.2142,-0.6411
18153,-1.8794,-10.6279,0.0814,0.8258,-0.2110,-0.6297
18160,-1.8962,-10.6015,0.1437,0.8148,-0.2017,-0.6185
18168,-1.8818,-10.5249,0.1149,0.7999,-0.2020,-0.6057
18177,-1.8651,-10.4986,0.1460,0.7874,-0.1927,-0.5926
18185,-1.8555,-10.5153,0.1317,0.7759,-0.1887,-0.5820
18193,-1.8603,-10.4603,0.0311,0.7586,-0.1852,-0.5649
18201,-1.7526,-10.3549,0.1915,0.7490,-0.1796,-0.5537
18208,-1.8172,-10.3980,0.0646,0.7322,-0.1767,-0.5423
18216,-1.8364,-10.2687,0.1700,0.7128,-0.1737,-0.5279
18225,-1.7885,-10.2137,0.1700,0.6960,-0.1676,-0.5121
18233,-1.7933,-10.2232,0.1437,0.6795,-0.1660,-0.4970
18241,-1.7573,-10.1179,0.0766,0.6656,-0.1641,-0.4820
18248,-1.7190,-10.0628,0.0886,0.6470,-0.1665,-0.4642
18256,-1.7837,-10.0006,0.0431,0.6278,-0.1575,-0.4501
18265,-1.7597,-9.9766,0.0910,0.6153,-0.1585,-0.4341
18273,-1.7238,-9.9311,0.0982,0.5990,-0.1583,-0.4149
18281,-1.8555,-9.8881,0.1484,0.5788,-0.1529,-0.3978
18289,-1.7765,-9.7612,0.1317,0.5612,-0.1529,-0.3813
18296,-1.7526,-9.7516,0.0934,0.5431,-0.1468,-0.3667
18305,-1.7478,-9.6845,0.0646,0.5223,-0.1442,-0.3459
18313,-1.7358,-9.6510,0.0790,0.5033,-0.1452,-0.3291
18321,-1.7262,-9.5505,0.0958,0.4858,-0.1418,-0.3088
18329,-1.6640,-9.5577,0.0622,0.4639,-0.1399,-0.2875
18336,-1.6783,-9.5313,0.2083,0.4445,-0.1383,-0.2697
18344,-1.7286,-9.4523,0.1604,0.4266,-0.1359,-0.2507
18353,-1.6592,-9.4523,0.1772,0.4077,-0.1346,-0.2318
18361,-1.6855,-9.4092,0.1437,0.3896,-0.1319,-0.2145
18369,-1.6951,-9.4667,0.0694,0.3704,-0.1282,-0.1935
18377,-1.6975,-9.3565,0.1077,0.3491,-0.1234,-0.1791
18384,-1.7166,-9.2632,0.0958,0.3222,-0.1183,-0.1572
18393,-1.6999,-9.2416,0.0646,0.3014,-0.1106,-0.1338
18401,-1.6352,-9.3039,-0.0144,0.2803,-0.1031,-0.1130
18409,-1.6831,-9.2105,0.1987,0.2555,-0.1005,-0.0893
18417,-1.7047,-9.2488,0.0479,0.2350,-0.0951,-0.0650
18424,-1.6664,-9.1387,0.0192,0.2100,-0.0874,-0.0421
18433,-1.6688,-9.1794,0.2298,0.1927,-0.0823,-0.0208
18441,-1.6233,-9.1985,0.1317,0.1687,-0.0687,0.0013
18449,-1.6616,-9.1866,0.0599,0.1458,-0.0586,0.0216
18457,-1.6520,-9.1937,0.0838,0.1178,-0.0504,0.0493
18465,-1.5993,-9.1411,0.1772,0.0967,-0.0352,0.0687
18472,-1.6592,-9.1842,0.0838,0.0719,-0.0234,0.0890
18481,-1.6616,-9.1842,0.0886,0.0432,-0.0091,0.1122
18489,-1.6113,-9.1985,-0.0335,0.0205,0.0064,0.1380
18497,-1.6975,-9.1506,0.0455,-0.0091,0.0179,0.1575
18505,-1.6496,-9.1387,0.0814,-0.0245,0.0309,0.1844
18512,-1.6400,-9.1051,0.0814,-0.0520,0.0464,0.2044
18521,-1.6305,-9.1818,0.0646,-0.0741,0.0605,0.2270
18529,-1.5562,-9.2105,0.0718,-0.0943,0.0743,0.2534
18537,-1.7214,-9.2871,0.0311,-0.1167,0.0903,0.2667
18545,-1.6807,-9.2656,0.0455,-0.1375,0.1058,0.2888
18552,-1.6496,-9.2488,0.0814,-0.1617,0.1196,0.3120
18561,-1.6257,-9.2751,0.1389,-0.1804,0.1380,0.3293
18569,-1.6376,-9.3230,0.1341,-0.2036,0.1529,0.3488
18577,-1.7214,-9.3278,0.1580,-0.2265,0.1687,0.3693
18585,-1.6807,-9.3374,0.1748,-0.2446,0.1863,0.3904
18593,-1.6424,-9.3302,0.1413,-0.2665,0.1990,0.4104
18600,-1.6831,-9.4140,0.1987,-0.2934,0.2161,0.4253
18609,-1.6807,-9.4547,0.1604,-0.3160,0.2281,0.4474
18617,-1.6592,-9.5361,0.0958,-0.3357,0.2449,0.4599
18625,-1.6568,-9.5888,0.1173,-0.3624,0.2563,0.4802
18633,-1.6616,-9.6007,0.1173,-0.3816,0.2753,0.4946
18640,-1.6855,-9.7492,0.1508,-0.4021,0.2832,0.5079
18649,-1.6807,-9.7037,0.0862,-0.4282,0.2931,0.5257
18657,-1.6999,-9.7468,0.0670,-0.4445,0.3011,0.5340
18665,-1.6735,-9.8114,0.1772,-0.4634,0.3086,0.5518
