Timestamp,AccelX,AccelY,AccelZ,GyroX,GyroY,GyroZ
407,-0.6823,-3.9097,8.8753,-0.0746,-0.0701,0.0667
414,-0.6201,-3.9361,8.8633,-0.0612,0.0336,0.0687
422,-0.5195,-3.9528,9.0525,-0.0357,0.1344,0.0710
431,-0.4429,-4.0558,9.2871,-0.0155,0.1928,0.0586
438,-0.3591,-3.9959,9.3685,-0.0053,0.1641,0.0522
446,-0.4381,-4.0031,9.4068,-0.0148,-0.0097,0.0444
454,-0.5435,-4.0199,9.2560,-0.0368,-0.2081,0.0470
462,-0.6656,-4.0390,8.8945,-0.0721,-0.4008,0.0570
471,-0.7374,-4.0103,8.8418,-0.0977,-0.4922,0.0703
479,-0.8978,-3.9696,8.9687,-0.1114,-0.4998,0.0941
486,-0.9337,-3.9097,9.0046,-0.0971,-0.3885,0.1134
494,-0.7925,-3.9863,9.0525,-0.0767,-0.2811,0.1319
502,-0.5531,-3.9528,9.1411,-0.0697,-0.1667,0.1443
510,-0.4046,-4.0630,9.0166,-0.0500,-0.0650,0.1340
519,-0.2634,-4.0582,8.9902,-0.0304,0.0221,0.1183
526,-0.3041,-4.0294,8.9328,-0.0135,0.0958,0.1005
534,-0.2873,-4.0941,9.0285,0.0037,0.1362,0.0795
542,-0.3400,-3.9887,9.0597,0.0167,0.1716,0.0663
550,-0.4932,-4.0438,9.1674,0.0168,0.2108,0.0633
559,-0.5938,-4.0151,9.1363,0.0069,0.2058,0.0648
567,-0.4645,-4.1156,9.2584,-0.0008,0.1162,0.0557
574,-0.2801,-4.1180,9.2536,-0.0025,0.0177,0.0368
582,-0.2682,-4.1348,9.3470,0.0117,-0.0326,0.0145
590,-0.3639,-4.1468,9.3302,0.0072,-0.0817,-0.0017
599,-0.5722,-4.0630,9.3518,0.0167,-0.1203,-0.0127
607,-0.6608,-4.0606,9.0381,0.0321,-0.1219,-0.0172
614,-0.6033,-3.9528,8.7628,0.0329,-0.0905,-0.0205
622,-0.5435,-4.0103,8.4276,0.0249,-0.0754,-0.0285
630,-0.5291,-4.0247,8.4443,0.0168,-0.1074,-0.0394
638,-0.4884,-3.9983,8.6383,0.0232,-0.1065,-0.0541
647,-0.7039,-4.0175,8.9711,0.0368,-0.0410,-0.0522
655,-0.7853,-4.0318,9.0812,0.0624,0.0055,-0.0488
662,-0.9529,-3.9385,9.0261,0.0775,0.0129,-0.0330
670,-0.9409,-3.8762,8.8370,0.0834,0.0048,-0.0103
678,-0.8116,-3.9600,8.7436,0.0762,0.0408,0.0065
687,-0.8835,-3.9385,8.7724,0.0658,0.0821,0.0161
695,-0.9026,-4.0031,8.8777,0.0416,0.0480,0.0305
702,-0.7422,-4.0127,9.0453,0.0253,0.0097,0.0416
710,-0.6393,-3.9648,9.3398,0.0136,0.0103,0.0464
718,-0.7566,-3.9840,9.5529,0.0172,-0.0204,0.0552
727,-0.6943,-3.9840,9.5193,0.0205,-0.0500,0.0670
735,-0.6464,-4.0486,9.3350,0.0269,-0.0493,0.0771
743,-0.8116,-3.9816,9.3039,0.0329,-0.0156,0.0858
750,-0.8380,-4.0055,9.2392,0.0441,0.0064,0.0965
758,-0.8021,-3.9935,8.9950,0.0248,0.0270,0.1120
766,-0.6608,-4.0055,8.8873,-0.0032,0.0448,0.1251
775,-0.3759,-4.0558,8.9040,-0.0328,0.0686,0.1216
783,-0.3807,-4.0869,8.9902,-0.0594,0.0699,0.1163
790,-0.4477,-4.0055,9.1794,-0.0691,0.0337,0.1102
798,-0.4908,-3.9959,9.1961,-0.0628,0.0203,0.1083
806,-0.4932,-4.0486,9.2727,-0.0448,0.0389,0.1042
815,-0.6800,-3.9863,9.2680,-0.0358,0.0261,0.1078
823,-0.6201,-4.0127,9.0261,-0.0284,-0.0021,0.1106
831,-0.6297,-3.9648,8.9974,-0.0176,-0.0097,0.1116
838,-0.6345,-3.9768,8.8011,-0.0181,-0.0077,0.1075
846,-0.6943,-3.9959,8.6503,-0.0294,-0.0172,0.1029
855,-0.6919,-4.0294,8.5210,-0.0560,0.0003,0.0998
863,-0.5578,-4.0701,8.6646,-0.0749,0.0199,0.1009
871,-0.3855,-4.1468,8.8992,-0.0901,0.0529,0.0883
878,-0.3089,-4.1587,9.3111,-0.0879,0.0893,0.0750
886,-0.3448,-4.1659,9.5098,-0.0807,0.1017,0.0545
894,-0.3376,-4.0989,9.2536,-0.0726,0.0799,0.0420
903,-0.5243,-4.1013,9.0716,-0.0703,0.0614,0.0313
911,-0.5794,-4.0438,8.9711,-0.0751,0.0473,0.0244
918,-0.5531,-4.0725,9.0261,-0.0795,0.0386,0.0189
926,-0.6560,-4.0270,9.2249,-0.0762,0.0001,0.0168
934,-0.6201,-3.9935,9.3446,-0.0437,-0.0180,0.0169
943,-0.4286,-4.0893,9.4667,-0.0023,-0.0301,0.0024
951,-0.2825,-4.2114,9.8282,0.0374,-0.0450,-0.0165
959,-0.4717,-4.1683,9.8737,0.0723,-0.0982,-0.0300
966,-0.6752,-4.0965,9.7540,0.0895,-0.1701,-0.0197
974,-0.7685,-4.0390,9.4930,0.1047,-0.1892,-0.0061
983,-0.7087,-4.0342,9.0860,0.1049,-0.1928,0.0123
991,-0.6704,-4.0031,8.8155,0.0898,-0.1819,0.0245
999,-0.5387,-3.9433,8.5832,0.0793,-0.1604,0.0337
1006,-0.3974,-3.9959,8.7293,0.0558,-0.1218,0.0441
1014,-0.4621,-3.9576,8.9423,0.0394,-0.0883,0.0541
1022,-0.4645,-3.9073,9.0573,0.0172,-0.1108,0.0730
1031,-0.4573,-3.9145,9.1315,0.0144,-0.1199,0.0870
1039,-0.2705,-3.8906,9.1482,0.0345,-0.0881,0.0935
1047,-0.1508,-4.0055,9.1937,0.0576,-0.0320,0.0878
1054,-0.2059,-3.9433,9.1842,0.0674,-0.0225,0.0894
1062,-0.4286,-3.8451,8.9807,0.0494,-0.0562,0.1059
1071,-0.4717,-3.8403,8.5784,0.0240,-0.1013,0.1250
1079,-0.4453,-3.8355,8.4013,-0.0035,-0.0694,0.1494
1087,-0.4597,-3.8188,8.1547,-0.0360,0.0039,0.1619
1094,-0.3926,-3.9624,8.4396,-0.0617,0.1002,0.1729
1102,-0.2849,-4.0247,8.7484,-0.0797,0.1644,0.1757
1111,-0.1365,-4.0414,9.0573,-0.0910,0.1951,0.1751
1119,-0.1772,-4.0558,9.2632,-0.1037,0.1667,0.1740
1127,-0.3280,-4.0007,9.0381,-0.1019,0.1211,0.1751
1135,-0.4334,-3.9959,8.8083,-0.0930,0.1254,0.1768
1142,-0.4693,-4.0031,8.6024,-0.0978,0.1839,0.1819
1150,-0.4334,-3.9720,8.7317,-0.1063,0.2541,0.1877
1159,-0.3759,-3.9983,9.0956,-0.1079,0.2598,0.1916
1167,-0.4286,-4.0199,9.3637,-0.1088,0.2113,0.1936
1175,-0.4860,-4.0630,9.4834,-0.1067,0.1604,0.1988
1182,-0.4190,-4.0079,9.5840,-0.0910,0.1238,0.1984
1190,-0.4022,-4.1061,9.6367,-0.0810,0.0520,0.1940
1199,-0.3759,-4.1922,9.6079,-0.0703,-0.0211,0.1851
1207,-0.4238,-4.1061,9.4858,-0.0509,0.0043,0.1749
1215,0.1101,-4.3215,10.0676,0.0041,0.0777,0.1430
1223,-0.5100,-4.2449,9.2368,-0.0171,-0.0352,0.1284
1230,-0.4429,-4.1731,9.1243,-0.0137,-0.1520,0.1242
1239,-0.3448,-4.1683,8.7819,-0.0041,-0.1572,0.1015
1247,-0.4884,-4.1300,8.8083,0.0027,-0.1435,0.0923
1255,-0.6847,-4.1444,9.2416,0.0152,-0.1791,0.0858
1263,-0.8045,-4.1827,9.1746,0.0386,-0.2168,0.0885
1270,-0.8308,-4.1444,8.9615,0.0480,-0.2288,0.0969
1278,-0.7757,-4.1180,8.6455,0.0328,-0.2595,0.1062
1287,-0.4142,-4.1635,8.5186,0.0104,-0.2990,0.1014
1295,-0.1437,-4.2042,8.4970,0.0011,-0.3327,0.0869
1303,0.1796,-4.2784,8.8657,0.0211,-0.3353,0.0537
1311,0.0144,-4.1420,9.0932,0.0417,-0.3676,0.0300
1318,-0.4741,-3.9265,9.1267,0.0695,-0.4458,0.0341
1327,-0.6752,-3.9887,8.9854,0.1022,-0.4728,0.0502
1335,-0.2945,-4.0534,8.8538,0.1270,-0.5297,0.0602
1343,0.0886,-4.1252,8.5066,0.1278,-0.6702,0.0537
1351,0.1844,-4.0438,8.0541,0.1575,-0.7938,0.0456
1358,-0.5818,-4.0294,8.1259,0.2106,-0.7167,0.0878
1367,-3.0622,-3.3255,8.8011,0.2706,-1.1175,0.9288
1375,-0.5243,-5.1978,-0.4357,-0.1584,-0.7647,0.9354
1383,-0.1580,-4.7549,-1.1253,-0.6218,-0.4610,0.7939
1391,-0.3735,-4.0989,1.2641,-0.6643,-0.3344,0.7036
1399,-0.8619,-5.3750,1.7095,-0.4190,-0.4513,0.6723
1406,-1.2929,-4.5969,-1.8364,-0.8827,-0.5452,1.0024
1415,-1.8531,-5.7174,-0.7614,-1.3238,-0.5175,1.2626
1423,-1.9632,-4.6998,0.8619,-1.3275,-0.5657,1.6634
1431,-1.0127,-4.2282,0.8021,-1.2518,-0.6567,1.8563
1439,-0.5842,-4.0151,0.8164,-1.0320,-0.8796,1.9217
1446,-0.0886,-4.1228,0.6177,-0.9065,-1.0103,1.9136
1455,-0.1413,-4.4173,0.8619,-0.7476,-1.0353,1.8682
1463,0.0263,-4.7142,1.0894,-0.5207,-1.0341,1.8110
1471,-0.0742,-4.7309,1.2186,-0.2506,-1.0806,1.7285
1479,0.0694,-4.8842,1.3695,0.0245,-1.2041,1.6169
1487,0.2298,-5.0015,1.2186,0.2915,-1.3214,1.4698
1495,0.4357,-5.2409,0.9649,0.5293,-1.3764,1.2776
1503,0.6225,-5.4731,0.6249,0.7248,-1.3776,1.0505
1511,0.7015,-5.7604,0.2298,0.8508,-1.3510,0.7879
1519,0.3950,-6.0956,-0.0120,0.9122,-1.3390,0.5239
1527,0.3352,-6.4715,-0.1341,0.9297,-1.2998,0.2737
1534,0.0862,-6.9384,-0.3615,0.9202,-1.2387,0.0504
1543,-0.1484,-7.2425,-0.5483,0.8691,-1.1973,-0.1314
1551,-0.5100,-7.6758,-0.7398,0.7554,-1.1950,-0.2815
1559,-0.6608,-8.0230,-1.2234,0.5596,-1.1886,-0.3962
1567,-0.8404,-8.2600,-1.6783,0.2734,-1.1359,-0.4728
1575,-1.1636,-8.2863,-2.1165,-0.1295,-1.0685,-0.5027
1583,-1.4916,-8.4539,-2.4948,-0.6486,-0.9859,-0.4718
1591,-1.7214,-8.4898,-2.9856,-1.2549,-0.9058,-0.3712
1599,-2.0327,-8.6933,-2.9568,-1.9017,-0.8202,-0.2069
1607,-2.3367,-8.9950,-3.0143,-2.5819,-0.7425,0.0203
1615,-2.6217,-9.4092,-2.7940,-3.2322,-0.6972,0.2928
1623,-2.7366,-9.9910,-2.2553,-3.8109,-0.6556,0.5970
1631,-2.6360,-10.8936,-1.6735,-4.2908,-0.6165,0.8868
1639,-2.5115,-11.9040,-1.3144,-4.3657,-0.5652,1.1369
1647,-2.3774,-13.0747,-0.7661,-4.3657,-0.4936,1.3356
1655,-2.1380,-14.3556,-0.3926,-4.3657,-0.3986,1.4739
1662,-2.0686,-15.6150,0.1317,-4.3657,-0.2886,1.5332
1671,-1.8028,-16.8193,0.3567,-4.3657,-0.1743,1.5196
1679,-1.7166,-18.0475,0.7925,-4.3657,-0.0695,1.4260
1687,-1.6137,-18.9788,0.8428,-4.3657,0.0342,1.2730
1695,-1.6017,-19.5678,1.0774,-4.3657,0.1624,1.0904
1703,-1.5897,-20.2023,1.4174,-4.3657,0.2892,0.8683
1711,-1.9441,-20.1999,1.5323,-4.3657,0.4122,0.6574
1719,-2.3942,-19.9509,1.6544,-4.3657,0.5152,0.5296
1727,-2.7605,-19.4816,1.6448,-4.3163,0.5906,0.4860
1735,-3.0191,-18.8783,1.6927,-4.1042,0.6626,0.5240
1743,-3.3064,-18.2342,1.6544,-3.8882,0.7424,0.6356
1751,-3.4046,-17.7051,1.5850,-3.6661,0.8416,0.7947
1759,-3.3902,-17.3604,1.7286,-3.4448,0.9354,0.9733
1767,-3.3543,-17.3244,1.8100,-3.2146,1.0211,1.1590
1775,-3.2585,-17.7123,1.9297,-2.9479,1.0964,1.3183
1783,-3.1077,-18.2079,2.0782,-2.6512,1.1700,1.4228
1792,-2.8299,-18.8998,2.2553,-2.3503,1.2267,1.4721
1799,-2.6983,-19.7977,2.3415,-2.0324,1.2761,1.4549
1807,-2.5019,-20.6667,2.3894,-1.6952,1.3231,1.3768
1815,-2.4038,-21.3156,2.3894,-1.3783,1.3703,1.2481
1823,-2.4181,-21.9453,2.0016,-1.1121,1.4115,1.0998
1831,-2.4325,-22.4983,1.7789,-0.9064,1.4398,0.9266
1839,-2.4828,-22.9173,1.3647,-0.7790,1.4691,0.7449
1847,-2.6336,-23.0394,1.0606,-0.7474,1.5184,0.5778
1855,-2.7078,-22.7713,0.3950,-0.8344,1.5970,0.4359
1863,-2.8323,-22.2565,-0.3663,-1.0603,1.6890,0.3276
1871,-3.0574,-21.7370,-0.8499,-1.4396,1.7802,0.2613
1880,-3.2250,-21.1384,-1.2761,-1.9119,1.8616,0.2470
1887,-3.2944,-20.7242,-1.5538,-2.4576,1.9356,0.2643
1895,-3.4093,-20.5327,-1.6041,-3.0383,1.9785,0.3043
1903,-3.4572,-20.5949,-1.5658,-3.6290,1.9995,0.3401
1911,-3.3471,-21.0714,-1.1325,-4.1707,1.9881,0.3519
1920,-3.1292,-21.7441,-0.8499,-4.3657,1.9927,0.3118
1927,-3.0167,-22.5127,-0.5626,-4.3657,1.9942,0.2260
1935,-3.0358,-23.3506,0.0934,-4.3657,1.9849,0.0971
1943,-3.0861,-24.1120,0.5698,-4.3657,1.9672,-0.0460
1951,-3.1244,-24.6268,1.1277,-4.3657,1.9437,-0.1912
1959,-3.2872,-24.8327,1.5467,-4.3657,1.9052,-0.3187
1968,-3.4620,-24.6555,1.9944,-4.3657,1.8195,-0.4084
1975,-3.5267,-23.8846,2.2577,-4.3657,1.7201,-0.4466
1983,-3.6464,-22.8790,2.5929,-4.3657,1.6104,-0.4379
1991,-3.7014,-21.7968,2.8012,-4.3657,1.4935,-0.3822
1999,-3.6512,-20.4680,2.8371,-4.3657,1.3504,-0.2777
2008,-3.6703,-19.3092,2.8874,-4.1363,1.1904,-0.1451
2015,-3.4740,-18.2654,2.8204,-3.7619,1.0159,0.0081
2023,-3.3423,-17.3915,2.7845,-3.3987,0.8364,0.1663
2031,-3.0287,-16.7355,2.5307,-3.0493,0.6722,0.3100
2039,-2.8228,-16.2854,2.1979,-2.7506,0.5327,0.4170
2048,-2.5426,-15.9406,1.8651,-2.5009,0.4213,0.4912
2056,-2.3415,-15.7850,1.6712,-2.2978,0.3380,0.5301
2063,-2.2266,-15.8041,1.3671,-2.1293,0.2719,0.5411
2071,-2.0973,-15.7850,1.2402,-1.9986,0.2088,0.5176
2079,-1.9609,-15.7850,1.0894,-1.8977,0.1506,0.4779
2087,-1.9225,-15.8736,0.9960,-1.8142,0.0891,0.4226
2096,-1.9417,-15.8065,0.9409,-1.7435,0.0310,0.3600
2103,-1.9465,-15.7347,0.8667,-1.6871,-0.0238,0.3030
2111,-1.9752,-15.5623,0.7183,-1.6402,-0.0759,0.2513
2119,-1.9321,-15.3061,0.7015,-1.6101,-0.1236,0.2116
2127,-1.9417,-15.0332,0.4597,-1.6029,-0.1631,0.1833
2136,-2.0039,-14.6238,0.2801,-1.6196,-0.2014,0.1700
2144,-1.9561,-14.1809,0.1149,-1.6602,-0.2385,0.1687
2151,-1.9872,-13.7140,0.0455,-1.7280,-0.2609,0.1744
2159,-1.8627,-13.2782,-0.1844,-1.8173,-0.2753,0.1839
2167,-1.8555,-12.7515,-0.2346,-1.9281,-0.2844,0.1907
2176,-1.6400,-12.2990,-0.4070,-2.0538,-0.2767,0.1945
2184,-1.5634,-11.8705,-0.4836,-2.1958,-0.2707,0.1843
2191,-1.4389,-11.4539,-0.5626,-2.3442,-0.2518,0.1653
2199,-1.3288,-11.1474,-0.5435,-2.5018,-0.2302,0.1442
2207,-1.2713,-10.8050,-0.6201,-2.6504,-0.1820,0.1120
2215,-1.1636,-10.5297,-0.6153,-2.7865,-0.1248,0.0794
2224,-1.2067,-10.3286,-0.5411,-2.9136,-0.0624,0.0502
2232,-1.2546,-10.1658,-0.4142,-3.0208,-0.0032,0.0217
2239,-1.1995,-9.9096,-0.4094,-3.1090,0.0665,0.0048
2247,-1.2617,-9.7636,-0.2610,-3.1760,0.1502,-0.0160
2255,-1.2713,-9.6391,-0.1796,-3.2139,0.2312,-0.0286
2264,-1.2474,-9.3422,-0.0527,-3.2271,0.3023,-0.0341
2272,-1.3001,-9.1171,0.0622,-3.2183,0.3762,-0.0340
2279,-1.2689,-8.8585,0.1867,-3.1910,0.4450,-0.0313
2287,-1.2091,-8.5018,0.2658,-3.1421,0.5084,-0.0238
2295,-1.2330,-8.2097,0.3041,-3.0691,0.5694,-0.0076
2304,-1.1803,-7.7716,0.3615,-2.9733,0.6218,0.0093
2312,-1.1684,-7.4388,0.5411,-2.8542,0.6748,0.0402
2319,-1.2139,-6.9743,0.6560,-2.7115,0.7204,0.0722
2327,-1.1037,-6.5745,0.7254,-2.5454,0.7703,0.1078
2335,-1.1133,-6.2345,0.8236,-2.3626,0.8079,0.1499
2343,-1.0678,-5.8347,0.7757,-2.1654,0.8499,0.1887
2352,-1.0104,-5.4612,0.9481,-1.9601,0.8916,0.2278
2360,-0.9194,-5.0877,0.9170,-1.7441,0.9362,0.2675
2367,-0.8475,-4.8746,0.8164,-1.5266,0.9816,0.2999
2375,-0.7350,-4.5226,0.8954,-1.3186,1.0347,0.3291
2383,-0.7326,-4.3144,0.7997,-1.1058,1.0836,0.3496
2392,-0.6656,-4.1779,0.8571,-0.9052,1.1438,0.3655
2400,-0.6225,-3.9744,0.7422,-0.7100,1.2065,0.3772
2407,-0.5722,-3.8547,0.7422,-0.5219,1.2721,0.3862
2415,-0.4860,-3.7182,0.6584,-0.3476,1.3412,0.3846
2423,-0.4693,-3.6152,0.5339,-0.1731,1.4261,0.3885
2432,-0.4429,-3.5626,0.5315,-0.0099,1.5120,0.3820
2440,-0.3879,-3.4812,0.5028,0.1452,1.6018,0.3768
2448,-0.4286,-3.5195,0.4525,0.2948,1.6855,0.3691
2455,-0.4190,-3.4189,0.4286,0.4362,1.7641,0.3619
2463,-0.3711,-3.4213,0.4262,0.5782,1.8313,0.3596
2471,-0.4214,-3.4477,0.4310,0.7188,1.8996,0.3565
2480,-0.3926,-3.4812,0.3735,0.8553,1.9554,0.3573
2488,-0.4477,-3.5099,0.4980,0.9903,1.9927,0.3621
2495,-0.4381,-3.5889,0.4645,1.1282,2.0127,0.3695
2503,-0.5243,-3.6799,0.4693,1.2737,2.0183,0.3858
2511,-0.5578,-3.8427,0.6895,1.4286,2.0010,0.4029
2520,-0.5674,-3.9385,0.7087,1.5873,1.9629,0.4345
2528,-0.6105,-4.2329,0.7733,1.7553,1.8995,0.4684
2536,-0.6943,-4.4269,0.8332,1.9325,1.8122,0.5120
2543,-0.8380,-4.6831,0.9577,2.1272,1.6998,0.5624
2551,-0.9218,-5.0518,1.0965,2.3422,1.5665,0.6194
2560,-0.9840,-5.3678,1.0726,2.5662,1.4096,0.6931
2568,-1.0702,-5.8682,1.2186,2.8068,1.2368,0.7675
2576,-1.1564,-6.3829,1.2833,3.0619,1.0457,0.8474
2583,-1.2617,-7.0318,1.4126,3.3293,0.8410,0.9309
2591,-1.3479,-7.7069,1.4413,3.6139,0.6169,1.0128
2599,-1.5251,-8.6024,1.5275,3.9162,0.3697,1.0965
2608,-1.5778,-9.5864,1.5778,4.2365,0.1127,1.1772
2616,-1.8292,-10.7739,1.6735,4.3656,-0.1728,1.2529
2624,-1.9441,-12.0596,1.7549,4.3656,-0.4708,1.3214
2631,-2.1907,-13.5536,1.7286,4.3656,-0.7734,1.3844
2639,-2.4469,-15.2271,1.5179,4.3656,-1.0702,1.4361
2648,-2.7222,-17.0778,1.2210,4.3656,-1.3562,1.4691
2656,-2.8611,-18.8160,0.9457,4.3656,-1.6278,1.4946
2664,-3.1484,-20.5015,0.3232,4.3656,-1.8787,1.5054
2671,-3.3950,-21.8303,-0.3879,4.3656,-2.1039,1.5102
2679,-3.5051,-22.4576,-1.1468,4.3656,-2.2703,1.5028
2688,-3.4117,-22.1990,-1.8675,4.3656,-2.3848,1.4901
2696,-3.2417,-21.1288,-2.4086,4.3656,-2.4630,1.4750
2704,-3.0143,-19.2326,-2.8946,4.3656,-2.5359,1.4605
2712,-2.5905,-17.1018,-2.9353,3.7882,-2.6237,1.4366
2719,-2.2865,-15.3205,-2.5929,3.2007,-2.7284,1.3844
2727,-1.9968,-14.0228,-2.0255,2.7200,-2.8645,1.3223
2736,-1.8603,-13.0388,-1.6616,2.3466,-3.0212,1.2633
2744,-1.6879,-12.3062,-1.3791,2.0563,-3.2205,1.1775
2752,-1.4246,-12.1290,-1.1708,1.8086,-3.4038,1.0556
2759,-1.1085,-12.4283,-1.3719,1.5756,-3.5046,0.8747
2767,-0.9002,-13.3261,-1.8986,1.3026,-3.4788,0.6411
2776,-0.8595,-14.6286,-2.1883,0.9470,-3.3470,0.3631
2784,-1.0989,-16.4553,-2.1428,0.5782,-3.1998,0.0781
2792,-1.6424,-18.6508,-1.9872,0.1891,-3.0868,-0.1791
2800,-2.2745,-20.7601,-1.6544,-0.1899,-3.0102,-0.3946
2807,-2.9042,-22.2852,-1.3264,-0.5566,-2.9864,-0.5565
2816,-3.2513,-22.8479,-0.7302,-0.8523,-2.9888,-0.6339
2824,-3.6464,-22.2445,-0.1676,-1.0253,-3.0046,-0.6225
2832,-3.7206,-20.8535,0.5578,-1.0237,-3.0208,-0.5219
2840,-3.6895,-19.3068,1.5299,-0.7933,-3.0113,-0.3507
2847,-3.6607,-17.9302,2.4660,-0.3343,-3.0057,-0.1387
2855,-3.5171,-16.9007,3.1532,0.3144,-3.0136,0.0823
2864,-3.3279,-16.2758,3.6320,1.1205,-3.0734,0.2687
2872,-2.9353,-16.1034,3.7469,1.9987,-3.1480,0.3673
2880,-2.3607,-16.2878,3.0454,2.7949,-3.1974,0.3497
2888,-2.1284,-17.0635,2.4038,3.4691,-3.1802,0.2245
2895,-1.9154,-18.0283,1.7980,4.0244,-3.1249,-0.0004
2904,-1.8411,-19.0387,1.3455,4.3656,-3.0643,-0.3040
2912,-1.8507,-19.9700,0.5411,4.3656,-3.0016,-0.6480
2920,-1.4317,-21.1791,0.0503,4.3656,-2.8758,-1.1395
2928,-1.5203,-21.9117,-0.2777,4.3656,-2.6886,-1.6443
2935,-1.7406,-23.0202,-0.4621,4.3656,-2.4885,-2.1445
2944,-2.4014,-24.0617,-0.1269,4.3656,-2.3242,-2.5774
2952,-3.0909,-24.5478,-0.0838,4.3656,-2.2163,-2.8866
2960,-3.8235,-24.4999,-0.1939,4.3656,-2.1169,-3.0498
2968,-4.3120,-24.0091,-0.5650,4.3656,-1.9913,-3.0684
2976,-4.6232,-22.9484,-1.1396,4.3656,-1.8040,-2.9427
2983,-4.9033,-21.6005,-1.6975,4.3656,-1.5853,-2.6922
2992,-5.0637,-20.0514,-2.0734,4.3656,-1.3659,-2.3367
3000,-4.9488,-18.5096,-2.1476,4.1242,-1.1884,-1.9271
3008,-4.7238,-17.2861,-2.2242,3.7207,-1.0383,-1.5028
3016,-4.3048,-16.2854,-2.0925,3.3268,-0.9249,-1.1214
3023,-3.8355,-15.6174,-1.8723,2.9775,-0.8568,-0.8143
3032,-3.3232,-14.9997,-1.6089,2.6580,-0.7878,-0.5898
3040,-2.9305,-14.5855,-1.6807,2.3507,-0.7301,-0.4333
3048,-2.4995,-14.4538,-1.7023,2.0470,-0.6512,-0.3535
3056,-2.2577,-14.4777,-1.7837,1.7479,-0.5184,-0.3258
3064,-2.0231,-14.7387,-1.8627,1.4532,-0.3299,-0.3492
3072,-1.8747,-14.9231,-1.7789,1.1525,-0.1128,-0.4038
3080,-1.9872,-15.2128,-1.6257,0.8636,0.0995,-0.4558
3088,-2.1380,-15.4354,-1.2809,0.6138,0.2722,-0.4970
3096,-2.4181,-15.6198,-0.9170,0.4163,0.3901,-0.5068
3104,-2.4708,-15.6461,-0.5243,0.2755,0.4550,-0.4878
3111,-2.6456,-15.5695,-0.2705,0.1947,0.4886,-0.4510
3120,-2.6049,-15.2343,0.1748,0.1791,0.5100,-0.4000
3128,-2.5809,-14.8010,0.4070,0.2349,0.5239,-0.3383
3136,-2.4660,-14.1497,0.6225,0.3524,0.5513,-0.2765
3144,-2.3152,-13.4578,0.8140,0.5161,0.5766,-0.2070
3151,-2.1955,-12.7946,0.9744,0.7100,0.6035,-0.1443
3160,-2.0231,-12.1410,0.9601,0.9214,0.6259,-0.0902
3168,-1.8148,-11.6023,1.0487,1.1435,0.6227,-0.0520
3176,-1.6281,-11.0660,1.1229,1.3709,0.5958,-0.0428
3184,-1.4222,-10.7811,1.0271,1.5926,0.5512,-0.0596
3192,-1.2617,-10.5153,1.0678,1.8110,0.5032,-0.1059
3200,-1.0726,-10.4267,1.0846,2.0242,0.4555,-0.1820
3208,-0.8499,-10.3238,1.1037,2.2492,0.4122,-0.3086
3216,-0.6225,-10.4339,1.0558,2.4814,0.3813,-0.4670
3224,-0.4932,-10.3597,1.0080,2.7181,0.3740,-0.6666
3232,-0.4310,-10.4603,0.7877,2.9379,0.3730,-0.8720
3239,-0.5962,-10.4052,0.6440,3.1279,0.3854,-1.0680
3248,-0.8452,-10.4387,0.4405,3.2776,0.3773,-1.2151
3256,-1.0989,-10.4794,0.3831,3.3937,0.3404,-1.3217
3264,-1.3072,-10.3358,0.1772,3.4763,0.2787,-1.3883
3272,-1.5036,-10.2759,0.0431,3.5132,0.2013,-1.4205
3280,-1.5993,-10.0126,-0.2346,3.5064,0.1268,-1.4121
3288,-1.7669,-9.6510,-0.5004,3.4426,0.0640,-1.3708
3296,-1.8675,-9.3230,-0.8308,3.3164,0.0200,-1.3002
3304,-1.9130,-8.8202,-1.0702,3.1411,-0.0031,-1.1968
3312,-1.9249,-8.3558,-1.3264,2.9128,-0.0139,-1.0617
3320,-1.9704,-7.7644,-1.4796,2.6378,-0.0413,-0.9105
3328,-1.9441,-7.1491,-1.6185,2.3275,-0.0826,-0.7469
3336,-1.9321,-6.6295,-1.6759,2.0029,-0.1158,-0.5766
3344,-1.7885,-6.1962,-1.5826,1.6547,-0.1699,-0.4129
3352,-1.6257,-5.8251,-1.4365,1.3655,-0.2212,-0.2674
3360,-1.4437,-5.5234,-1.2905,1.0908,-0.3023,-0.1407
3368,-1.2881,-5.1691,-1.0965,0.8322,-0.3765,-0.0358
3376,-1.1253,-5.0350,-1.0630,0.6023,-0.4425,0.0534
3384,-1.0104,-4.7932,-0.8763,0.3944,-0.4767,0.1180
3392,-0.8763,-4.6974,-0.8978,0.2062,-0.4974,0.1675
3400,-0.8116,-4.5562,-0.7877,0.0317,-0.5155,0.2016
3408,-0.7111,-4.4436,-0.6943,-0.1231,-0.5441,0.2298
3416,-0.7350,-4.3694,-0.6033,-0.2682,-0.5837,0.2461
3424,-0.7278,-4.2617,-0.5794,-0.4044,-0.6242,0.2589
3432,-0.6321,-4.1707,-0.5674,-0.5249,-0.6714,0.2657
3440,-0.5866,-4.1731,-0.4812,-0.6442,-0.7198,0.2669
3448,-0.5914,-4.2066,-0.3567,-0.7461,-0.7577,0.2653
3457,-0.5363,-4.1707,-0.4262,-0.8412,-0.7845,0.2622
3464,-0.5387,-4.2210,-0.4118,-0.9204,-0.7971,0.2613
3472,-0.5962,-4.3838,-0.2993,-0.9856,-0.8060,0.2625
3480,-0.6656,-4.4963,-0.2035,-1.0503,-0.8041,0.2714
3488,-0.7326,-4.7046,-0.2634,-1.1141,-0.8005,0.2922
3496,-0.8763,-4.8794,-0.2825,-1.1892,-0.7979,0.3234
3504,-1.0104,-5.0877,-0.3759,-1.2793,-0.7905,0.3728
3512,-1.0918,-5.4444,-0.4381,-1.3732,-0.7735,0.4327
3520,-1.1660,-5.7126,-0.5076,-1.4834,-0.7425,0.5055
3528,-1.3216,-6.1196,-0.5171,-1.5980,-0.6961,0.5849
3536,-1.3671,-6.4691,-0.6321,-1.7167,-0.6399,0.6773
3545,-1.5682,-6.9240,-0.8068,-1.8488,-0.5716,0.7743
3552,-1.6496,-7.3670,-0.7207,-1.9886,-0.4956,0.8804
3560,-1.7142,-7.9775,-0.7015,-2.1256,-0.4125,0.9860
3568,-1.7526,-8.5018,-0.7757,-2.2691,-0.3202,1.0976
3576,-1.8699,-9.0668,-0.8140,-2.4091,-0.2349,1.1968
3585,-1.8842,-9.6223,-0.7805,-2.5475,-0.1419,1.2899
3592,-1.9082,-10.1658,-0.6225,-2.6759,-0.0444,1.3749
3600,-1.9010,-10.7380,-0.4405,-2.7849,0.0626,1.4378
3608,-1.9130,-11.2097,-0.3663,-2.8718,0.1755,1.4773
3616,-1.7837,-11.7148,-0.1293,-2.9346,0.2855,1.4918
3624,-1.7597,-11.9159,-0.0287,-2.9676,0.3921,1.4930
3633,-1.7166,-12.0333,0.2011,-2.9645,0.5020,1.4741
3640,-1.6712,-12.0979,0.3472,-2.9259,0.6197,1.4406
3648,-1.5586,-11.9949,0.6393,-2.8527,0.7282,1.3940
3656,-1.5155,-11.9351,0.6488,-2.7591,0.8246,1.3380
3664,-1.4916,-11.8752,0.8978,-2.6332,0.8968,1.2730
3673,-1.4293,-11.8920,1.1085,-2.4714,0.9637,1.1992
3680,-1.4317,-11.9135,1.2426,-2.2792,1.0273,1.1162
3688,-1.3599,-11.9830,1.3982,-2.0640,1.0818,1.0198
3696,-1.4078,-12.0859,1.4317,-1.8283,1.1374,0.9108
3704,-1.3910,-12.4379,1.5754,-1.5757,1.2099,0.7845
3713,-1.3910,-12.6773,1.3815,-1.3318,1.2839,0.6511
3721,-1.4964,-12.9933,1.2163,-1.1157,1.3608,0.5252
3728,-1.6448,-13.3525,1.1301,-0.9357,1.4361,0.4130
3736,-1.8411,-13.7906,1.0391,-0.7801,1.5055,0.3234
3744,-1.9656,-14.1330,0.9792,-0.6508,1.5728,0.2485
3752,-2.1380,-14.5065,0.6871,-0.5644,1.6365,0.1985
3761,-2.3128,-14.9039,0.4764,-0.5239,1.7066,0.1793
3768,-2.5067,-15.1840,0.2514,-0.5364,1.7786,0.1781
3776,-2.6408,-15.4737,0.0718,-0.5978,1.8663,0.2026
3784,-2.7581,-15.4665,-0.2370,-0.7206,1.9546,0.2446
3792,-2.9066,-15.6030,-0.4573,-0.9012,2.0498,0.3102
3801,-2.9760,-15.6772,-0.5986,-1.1294,2.1282,0.3878
3808,-3.1053,-15.7371,-0.7326,-1.3999,2.2014,0.4646
3816,-3.0957,-15.7634,-0.6943,-1.6972,2.2477,0.5505
3824,-3.0837,-15.9981,-0.7614,-2.0029,2.2813,0.6189
3832,-2.9233,-16.1633,-0.6249,-2.3053,2.2992,0.6671
3841,-2.9449,-16.4242,-0.5578,-2.5855,2.3121,0.6931
3849,-2.7653,-16.7283,-0.3950,-2.8474,2.3117,0.6911
3856,-2.8132,-17.2167,-0.2418,-3.0896,2.2920,0.6674
3864,-2.6911,-17.7051,0.0431,-3.3101,2.2612,0.6199
3872,-2.7653,-18.1792,0.1341,-3.4967,2.2156,0.5565
3880,-2.7725,-18.6867,0.2394,-3.6671,2.1408,0.4854
3889,-2.8898,-19.1416,0.5411,-3.8067,2.0467,0.4155
3896,-3.0095,-19.5223,0.5842,-3.9263,1.9497,0.3564
3904,-3.0478,-19.7977,0.7901,-4.0157,1.8458,0.3003
3912,-3.0981,-19.9030,0.9122,-4.0751,1.7333,0.2573
3920,-3.1173,-19.8743,1.1109,-4.1122,1.6246,0.2209
3929,-3.1508,-19.7905,1.1372,-4.1112,1.5175,0.1951
3937,-3.1101,-19.4457,1.3671,-4.0746,1.4003,0.1849
3944,-3.0358,-19.0171,1.4940,-4.0008,1.2894,0.1816
3952,-3.0358,-18.5742,1.6520,-3.8888,1.1684,0.1888
3960,-2.9880,-17.9924,1.8938,-3.7350,1.0328,0.1984
3969,-2.8706,-17.5591,1.9872,-3.5452,0.8763,0.2172
3977,-2.8012,-17.0898,2.2170,-3.3233,0.7024,0.2309
3984,-2.6695,-16.7642,2.2098,-3.0694,0.5331,0.2373
3992,-2.5809,-16.3835,2.3080,-2.7999,0.3608,0.2386
4000,-2.4541,-16.3668,2.2003,-2.5238,0.2098,0.2192
4008,-2.2338,-16.2949,1.9872,-2.2657,0.0721,0.1803
4017,-2.3176,-16.3045,1.7023,-2.0478,-0.0348,0.1379
4025,-2.3008,-16.2734,1.4461,-1.8702,-0.1308,0.1017
4032,-2.4541,-16.3907,1.3048,-1.7327,-0.2128,0.0718
4040,-2.4828,-16.3189,1.0965,-1.6373,-0.2912,0.0576
4048,-2.5235,-16.2854,0.8212,-1.5808,-0.3617,0.0617
4057,-2.6432,-16.1800,0.7159,-1.5681,-0.4229,0.0811
4065,-2.6671,-16.0795,0.4501,-1.5873,-0.4668,0.1100
4072,-2.5977,-15.8448,0.1556,-1.6446,-0.4879,0.1533
4080,-2.6408,-15.6868,0.0287,-1.7311,-0.5057,0.2056
4088,-2.6193,-15.3732,-0.1173,-1.8438,-0.5093,0.2603
4097,-2.6001,-15.0954,-0.2346,-1.9745,-0.5043,0.3160
4105,-2.4708,-14.8225,-0.3280,-2.1153,-0.4879,0.3713
4113,-2.3583,-14.5400,-0.3543,-2.2639,-0.4642,0.4215
4120,-2.2793,-14.2455,-0.3184,-2.4092,-0.4398,0.4555
4128,-2.2098,-14.0588,-0.3208,-2.5434,-0.4097,0.4836
4136,-2.0830,-13.8050,-0.3160,-2.6712,-0.3780,0.4975
4145,-2.0016,-13.6134,-0.2179,-2.7801,-0.3428,0.5047
4153,-1.9561,-13.5033,-0.2562,-2.8790,-0.2959,0.5045
4160,-1.9728,-13.3644,-0.1867,-2.9685,-0.2450,0.5025
4168,-1.9106,-13.2663,-0.0766,-3.0415,-0.1871,0.5009
4176,-1.9082,-13.1322,-0.0814,-3.1007,-0.1226,0.5040
4185,-1.9178,-12.9383,0.1221,-3.1401,-0.0577,0.5073
4193,-1.9393,-12.7084,0.1508,-3.1544,0.0060,0.5117
4201,-1.8962,-12.4427,0.2873,-3.1489,0.0642,0.5183
4208,-1.8292,-12.1075,0.3041,-3.1231,0.1255,0.5288
4216,-1.7813,-11.7579,0.4310,-3.0754,0.1748,0.5385
4225,-1.7286,-11.3653,0.5219,-3.0020,0.2300,0.5509
4233,-1.7454,-10.9630,0.6105,-2.9076,0.2818,0.5549
4241,-1.5969,-10.5369,0.6895,-2.7925,0.3357,0.5565
4248,-1.4868,-10.0844,0.8164,-2.6577,0.3880,0.5577
4256,-1.4198,-9.6606,0.6800,-2.5114,0.4465,0.5545
4264,-1.2617,-9.1961,0.8428,-2.3443,0.4990,0.5405
4273,-1.2402,-8.8370,0.8739,-2.1685,0.5514,0.5237
4281,-1.2737,-8.4874,0.8619,-1.9887,0.5993,0.4990
4288,-1.0343,-8.1451,0.9146,-1.7944,0.6656,0.4655
4296,-1.0104,-7.8626,0.8236,-1.6006,0.7270,0.4297
4304,-0.8787,-7.5657,0.7781,-1.4200,0.7839,0.3850
4313,-0.9385,-7.4148,0.7542,-1.2440,0.8354,0.3403
4321,-0.8188,-7.2209,0.6728,-1.0790,0.8985,0.2926
4329,-0.8787,-6.9647,0.6871,-0.9204,0.9621,0.2458
4336,-0.7661,-6.8307,0.4932,-0.7661,1.0436,0.1997
4344,-0.8045,-6.6966,0.4788,-0.6254,1.1177,0.1541
4353,-0.7470,-6.5290,0.5052,-0.4935,1.1940,0.1148
4361,-0.8452,-6.3805,0.3926,-0.3741,1.2624,0.0825
4369,-0.8691,-6.3255,0.4812,-0.2579,1.3241,0.0556
4376,-0.8978,-6.1890,0.3926,-0.1464,1.3803,0.0394
4384,-0.9074,-6.1483,0.3639,-0.0485,1.4248,0.0314
4392,-0.8930,-6.0789,0.2945,0.0453,1.4603,0.0224
4401,-0.9242,-5.9831,0.3304,0.1351,1.4857,0.0230
4409,-0.8954,-5.9927,0.3112,0.2241,1.5056,0.0215
4417,-0.9050,-5.8730,0.3879,0.3119,1.5204,0.0290
4424,-0.9673,-5.8802,0.3783,0.4005,1.5199,0.0301
4432,-0.9218,-5.9304,0.3639,0.4830,1.5063,0.0410
4441,-0.9098,-5.9855,0.3639,0.5681,1.4890,0.0490
4449,-0.9529,-6.0047,0.3424,0.6456,1.4541,0.0598
4457,-0.9577,-6.0765,0.4860,0.7276,1.4088,0.0714
4464,-1.0343,-6.1699,0.3448,0.8104,1.3539,0.0837
4472,-0.9912,-6.2944,0.3232,0.8812,1.2861,0.0951
4481,-1.0008,-6.3758,0.3519,0.9589,1.2088,0.1021
4489,-1.0391,-6.5170,0.4286,1.0325,1.1249,0.1115
4497,-0.9768,-6.5960,0.3926,1.1041,1.0291,0.1170
4505,-1.0606,-6.8331,0.4262,1.1763,0.9301,0.1254
4512,-1.0654,-6.9049,0.3424,1.2418,0.8166,0.1314
4520,-1.0942,-7.0461,0.3735,1.3173,0.6947,0.1367
4529,-1.0989,-7.2616,0.3903,1.3871,0.5681,0.1479
4537,-1.1301,-7.4412,0.5004,1.4581,0.4362,0.1545
4545,-1.1923,-7.6399,0.3879,1.5256,0.2950,0.1624
4552,-1.2258,-7.8602,0.3663,1.5964,0.1567,0.1699
4560,-1.2785,-8.1116,0.3998,1.6802,0.0077,0.1733
4569,-1.2905,-8.3869,0.3974,1.7440,-0.1370,0.1801
4577,-1.3312,-8.7604,0.3065,1.8054,-0.2850,0.1813
4585,-1.4269,-9.0980,0.4405,1.8712,-0.4294,0.1827
4593,-1.4174,-9.3565,0.3855,1.9390,-0.5752,0.1801
4600,-1.4988,-9.6630,0.3783,2.0039,-0.7237,0.1785
4609,-1.6664,-10.0126,0.3903,2.0684,-0.8705,0.1759
4617,-1.6927,-10.3406,0.3879,2.1314,-1.0203,0.1705
4625,-1.6951,-10.6374,0.2969,2.1937,-1.1684,0.1628
4633,-1.7741,-10.9798,0.2634,2.2497,-1.3070,0.1549
4640,-1.8292,-11.2887,0.1484,2.3016,-1.4386,0.1527
4648,-1.8914,-11.6095,0.1796,2.3478,-1.5661,0.1387
4657,-1.9920,-11.8369,0.1460,2.3886,-1.6659,0.1280
4665,-1.9273,-12.0668,0.1173,2.4209,-1.7894,0.1166
4673,-2.0207,-12.3637,0.0096,2.4396,-1.8922,0.1018
4681,-2.0399,-12.5336,-0.0670,2.4479,-1.9897,0.0834
4688,-2.0470,-12.8473,-0.2705,2.4484,-2.0697,0.0674
4697,-2.1404,-12.9885,-0.2825,2.4325,-2.1413,0.0468
4705,-2.1835,-13.1849,-0.2298,2.4095,-2.1962,0.0185
4713,-2.1524,-13.4195,-0.4022,2.3711,-2.2351,-0.0117
4721,-2.1787,-13.6015,-0.4645,2.3225,-2.2603,-0.0432
4728,-2.2122,-13.9079,-0.5052,2.2745,-2.2736,-0.0810
4737,-2.2146,-14.0827,-0.4669,2.2172,-2.2687,-0.1144
4745,-2.2529,-14.2670,-0.4621,2.1532,-2.2655,-0.1529
4753,-2.2936,-14.4921,-0.5315,2.0972,-2.2543,-0.1812
4761,-2.3846,-14.6453,-0.3926,2.0458,-2.2412,-0.2173
4769,-2.4373,-14.9374,-0.3519,2.0091,-2.2223,-0.2475
4776,-2.4804,-15.0978,-0.2658,1.9839,-2.2047,-0.2763
4785,-2.4756,-15.2511,-0.2969,1.9748,-2.1798,-0.3066
4793,-2.4588,-15.5001,-0.2203,1.9822,-2.1420,-0.3372
4801,-2.4995,-15.6653,-0.0862,2.0003,-2.1052,-0.3714
4809,-2.4732,-15.8329,-0.1413,2.0308,-2.0552,-0.4045
4816,-2.4995,-16.0148,-0.0622,2.0630,-2.0050,-0.4354
4825,-2.5259,-16.2016,-0.0694,2.1055,-1.9485,-0.4691
4833,-2.5426,-16.2686,-0.0766,2.1437,-1.8867,-0.5065
4841,-2.5833,-16.4314,-0.0024,2.1846,-1.8373,-0.5408
4849,-2.5833,-16.5798,0.0048,2.2340,-1.7642,-0.5830
4857,-2.5259,-16.6708,-0.0599,2.2894,-1.7192,-0.6262
4865,-2.5283,-16.6852,-0.0599,2.3381,-1.6153,-0.6734
4873,-2.4780,-16.7666,0.0239,2.3908,-1.5208,-0.7209
4881,-2.5474,-16.8863,-0.0048,2.4448,-1.4424,-0.7665
4889,-2.5762,-16.8791,0.0096,2.5034,-1.3542,-0.8095
4897,-2.5307,-16.8959,-0.0766,2.5603,-1.2692,-0.8512
4904,-2.5738,-17.0060,-0.0599,2.6113,-1.1860,-0.8920
4913,-2.5857,-16.9797,-0.1365,2.6596,-1.1000,-0.9245
4921,-2.6504,-17.0156,-0.1030,2.7066,-1.0150,-0.9539
4929,-2.6264,-16.9869,-0.1030,2.7519,-0.9236,-0.9773
4937,-2.6911,-16.9031,-0.2203,2.7813,-0.8396,-0.9956
4944,-2.6815,-16.8456,-0.2059,2.8074,-0.7581,-1.0012
4953,-2.6791,-16.8145,-0.2897,2.8189,-0.6736,-1.0024
4961,-2.7294,-16.7450,-0.2442,2.8242,-0.5921,-0.9975
4969,-2.6743,-16.6349,-0.4166,2.8130,-0.5229,-0.9851
4977,-2.6983,-16.5320,-0.3687,2.7948,-0.4474,-0.9678
4985,-2.6791,-16.4218,-0.5219,2.7651,-0.3778,-0.9483
4993,-2.6624,-16.2231,-0.4549,2.7291,-0.3027,-0.9196
5001,-2.6288,-16.0627,-0.5578,2.6770,-0.2336,-0.8926
5009,-2.6240,-15.8975,-0.5483,2.6215,-0.1645,-0.8631
5017,-2.5786,-15.7922,-0.5914,2.5583,-0.1026,-0.8336
5025,-2.6312,-15.5743,-0.6105,2.4933,-0.0457,-0.8003
5032,-2.4852,-15.3684,-0.5986,2.4220,0.0045,-0.7669
5041,-2.4924,-15.1744,-0.5076,2.3515,0.0477,-0.7369
5049,-2.4636,-14.9781,-0.5267,2.2850,0.0811,-0.7076
5057,-2.3822,-14.7243,-0.4453,2.2236,0.1106,-0.6804
5065,-2.3918,-14.5615,-0.4310,2.1701,0.1327,-0.6539
5073,-2.3080,-14.3676,-0.3448,2.1222,0.1519,-0.6294
5081,-2.2075,-14.1162,-0.2658,2.0763,0.1672,-0.6097
5089,-2.2362,-13.9750,-0.2083,2.0386,0.1705,-0.5910
5097,-2.1596,-13.6877,-0.2514,2.0039,0.1675,-0.5741
5105,-2.1213,-13.4219,-0.2155,1.9685,0.1656,-0.5537
5113,-2.1476,-13.1944,-0.1772,1.9373,0.1524,-0.5367
5121,-2.0231,-12.9957,-0.0622,1.9089,0.1371,-0.5181
5129,-2.0446,-12.6797,-0.0551,1.8810,0.1163,-0.5027
5137,-2.0255,-12.5073,-0.1700,1.8540,0.0866,-0.4879
5145,-1.9393,-12.1985,-0.0670,1.8274,0.0537,-0.4754
5153,-1.8747,-12.0644,-0.1125,1.8052,0.0233,-0.4647
5161,-1.8842,-11.7531,-0.1293,1.7870,-0.0131,-0.4523
5169,-1.8364,-11.5257,-0.1173,1.7653,-0.0469,-0.4459
5177,-1.7933,-11.2839,-0.1077,1.7348,-0.0846,-0.4407
5185,-1.7334,-11.0923,0.0575,1.7241,-0.1262,-0.4351
5193,-1.7430,-10.8266,-0.0215,1.7072,-0.1680,-0.4315
5201,-1.6975,-10.6087,-0.0479,1.6679,-0.2125,-0.4247
5209,-1.5945,-10.4148,-0.0982,1.6670,-0.2619,-0.4178
5217,-1.6305,-10.2185,-0.0144,1.6270,-0.3107,-0.4117
5225,-1.6017,-9.9671,0.0383,1.6048,-0.3551,-0.4050
5233,-1.5347,-9.8019,-0.0479,1.5797,-0.4022,-0.4008
5241,-1.5155,-9.6271,-0.0886,1.5459,-0.4421,-0.3901
5250,-1.5083,-9.3901,-0.1963,1.4997,-0.4863,-0.3836
5257,-1.5155,-9.1866,-0.1053,1.4517,-0.5248,-0.3758
5265,-1.4868,-9.0477,-0.1652,1.3992,-0.5610,-0.3625
5273,-1.3671,-8.8011,-0.2155,1.3416,-0.5965,-0.3547
5281,-1.4868,-8.6000,-0.2634,1.2772,-0.6316,-0.3421
5289,-1.3982,-8.4036,-0.2705,1.2088,-0.6620,-0.3255
5297,-1.3910,-8.2911,-0.2849,1.1371,-0.6911,-0.3138
5305,-1.3455,-8.0589,-0.3184,1.0588,-0.7136,-0.2979
5313,-1.3599,-7.8697,-0.3400,0.9804,-0.7382,-0.2786
5321,-1.2929,-7.7237,-0.3543,0.8958,-0.7557,-0.2598
5329,-1.2474,-7.5633,-0.3328,0.8163,-0.7767,-0.2413
5338,-1.2689,-7.3933,-0.4429,0.7380,-0.7717,-0.2217
5345,-1.2378,-7.2233,-0.4334,0.6508,-0.7745,-0.1998
5353,-1.2905,-7.0916,-0.4046,0.5632,-0.7830,-0.1775
5361,-1.2019,-6.9863,-0.3663,0.4752,-0.7881,-0.1522
5369,-1.1325,-6.8761,-0.2873,0.3978,-0.7978,-0.1274
5378,-1.2043,-6.7516,-0.3855,0.3150,-0.7897,-0.1009
5385,-1.1779,-6.5601,-0.4477,0.2372,-0.7805,-0.0801
5393,-1.1205,-6.5481,-0.3950,0.1573,-0.7665,-0.0549
5401,-1.1133,-6.4715,-0.3208,0.0815,-0.7420,-0.0281
5409,-1.1492,-6.4476,-0.3519,0.0155,-0.7167,-0.0028
5417,-1.0846,-6.3782,-0.3184,-0.0540,-0.6917,0.0234
5426,-1.0702,-6.3710,-0.3448,-0.1252,-0.6584,0.0498
5433,-1.0582,-6.3494,-0.2753,-0.1903,-0.6289,0.0773
5441,-1.0942,-6.3758,-0.3496,-0.2523,-0.5873,0.1043
5449,-1.0822,-6.4141,-0.2777,-0.3159,-0.5445,0.1372
5457,-1.1540,-6.4332,-0.3089,-0.3760,-0.4994,0.1708
5466,-1.0678,-6.4811,-0.2514,-0.4445,-0.4449,0.2013
5473,-1.1564,-6.6535,-0.3424,-0.5148,-0.3916,0.2388
5481,-1.2115,-6.7469,-0.3543,-0.5862,-0.3230,0.2714
5489,-1.2139,-6.8738,-0.3950,-0.6640,-0.2537,0.3107
5497,-1.2067,-7.0413,-0.4525,-0.7482,-0.1752,0.3492
5506,-1.1947,-7.1563,-0.5291,-0.8324,-0.0935,0.3890
5514,-1.3048,-7.3861,-0.5052,-0.9164,-0.0181,0.4307
5521,-1.3886,-7.4627,-0.4070,-0.9948,0.0646,0.4759
5529,-1.3455,-7.6375,-0.4262,-1.0729,0.1430,0.5171
5537,-1.3982,-7.8530,-0.3089,-1.1394,0.2261,0.5568
5545,-1.3862,-8.0972,-0.3543,-1.2097,0.3046,0.5963
5554,-1.3982,-8.3342,-0.3496,-1.2738,0.3890,0.6266
5561,-1.4389,-8.5018,-0.3328,-1.3302,0.4676,0.6540
5569,-1.4293,-8.7460,-0.2969,-1.3923,0.5485,0.6821
5577,-1.5036,-9.0046,-0.2322,-1.4482,0.6211,0.7065
5585,-1.5323,-9.2416,-0.2322,-1.4990,0.6957,0.7241
5594,-1.5371,-9.5193,-0.1604,-1.5509,0.7687,0.7401
5601,-1.6520,-9.6893,-0.1580,-1.5958,0.8335,0.7493
5609,-1.6185,-9.9958,-0.0694,-1.6346,0.8998,0.7557
5617,-1.6472,-10.1466,0.0192,-1.6646,0.9703,0.7600
5625,-1.6233,-10.3956,0.0215,-1.6948,1.0363,0.7613
5634,-1.6975,-10.5872,0.1628,-1.7195,1.1042,0.7581
5642,-1.6616,-10.8577,0.0742,-1.7333,1.1686,0.7522
5649,-1.7669,-11.0397,0.1724,-1.7468,1.2291,0.7458
5657,-1.7933,-11.2743,0.1772,-1.7540,1.2845,0.7366
5665,-1.8052,-11.4347,0.2729,-1.7579,1.3331,0.7246
5673,-1.8387,-11.6143,0.2298,-1.7568,1.3733,0.7101
5682,-1.8555,-11.8441,0.3567,-1.7501,1.4035,0.6965
5689,-1.8340,-12.0333,0.3735,-1.7409,1.4341,0.6807
5697,-1.8794,-12.2056,0.4286,-1.7263,1.4599,0.6631
5705,-1.9297,-12.5265,0.4693,-1.7135,1.4865,0.6383
5713,-1.9896,-12.6127,0.5674,-1.6976,1.5094,0.6178
5722,-1.9728,-12.8377,0.5578,-1.6766,1.5231,0.5919
5730,-2.0566,-13.0460,0.5148,-1.6601,1.5299,0.5654
5737,-2.0494,-13.2782,0.4741,-1.6431,1.5280,0.5401
5745,-2.0806,-13.3836,0.4621,-1.6414,1.5200,0.5167
5753,-2.1500,-13.6469,0.5028,-1.6507,1.4891,0.4932
5762,-2.1739,-13.8409,0.4980,-1.6583,1.4663,0.4700
5770,-2.2122,-13.9917,0.4190,-1.6698,1.4420,0.4511
5777,-2.2529,-14.1976,0.3424,-1.6895,1.4309,0.4294
5785,-2.2482,-14.3437,0.3926,-1.7373,1.4045,0.4135
5793,-2.3128,-14.5735,0.2897,-1.7825,1.3666,0.3992
5801,-2.3367,-14.6693,0.3065,-1.8357,1.3223,0.3906
5810,-2.4469,-14.8081,0.2370,-1.9019,1.2701,0.3804
5818,-2.4373,-14.9518,0.1987,-1.9795,1.2121,0.3801
5825,-2.4876,-15.0284,0.1652,-2.0696,1.1522,0.3816
5833,-2.5283,-15.1840,0.2035,-2.1574,1.1012,0.3836
5841,-2.4948,-15.2846,0.1245,-2.2479,1.0476,0.3888
5850,-2.5762,-15.4139,0.2346,-2.3445,0.9939,0.3884
5858,-2.5666,-15.5456,0.2562,-2.4304,0.9495,0.3941
5865,-2.5283,-15.6030,0.2849,-2.5158,0.8941,0.3994
5873,-2.5642,-15.7323,0.3136,-2.5907,0.8427,0.4033
5881,-2.5307,-15.7850,0.4310,-2.6569,0.7841,0.4040
5890,-2.5331,-15.8376,0.4908,-2.7094,0.7177,0.4030
5898,-2.5115,-15.9382,0.4908,-2.7512,0.6547,0.4001
5906,-2.5235,-15.9574,0.6201,-2.7828,0.5934,0.4018
5913,-2.5379,-16.0124,0.7925,-2.8044,0.5313,0.3976
5921,-2.4924,-15.9765,0.7614,-2.8106,0.4704,0.3958
5929,-2.5235,-16.0268,0.7183,-2.8108,0.4124,0.3957
5938,-2.5402,-15.9741,0.7135,-2.8047,0.3517,0.3978
5946,-2.4756,-15.9262,0.7638,-2.7903,0.2839,0.4040
5953,-2.4828,-15.8903,0.8667,-2.7652,0.2242,0.4086
5961,-2.4756,-15.7491,0.8212,-2.7328,0.1735,0.4141
5969,-2.5019,-15.6724,0.8212,-2.6970,0.1248,0.4202
5978,-2.4086,-15.5767,0.8140,-2.6517,0.0787,0.4249
5986,-2.3870,-15.5072,0.8978,-2.6016,0.0384,0.4321
5994,-2.3391,-15.2966,0.9122,-2.5446,0.0059,0.4366
6001,-2.3774,-15.1721,0.8308,-2.4878,-0.0226,0.4410
6009,-2.2984,-15.0212,0.8116,-2.4303,-0.0456,0.4402
6018,-2.2793,-14.9159,0.8691,-2.3683,-0.0590,0.4375
6026,-2.2194,-14.7579,0.8092,-2.3068,-0.0658,0.4325
6034,-2.1739,-14.6238,0.7374,-2.2492,-0.0638,0.4295
6041,-2.1308,-14.4418,0.7566,-2.1893,-0.0628,0.4217
6049,-2.1931,-14.2814,0.6177,-2.1469,-0.0574,0.4158
6057,-2.1763,-14.1593,0.6225,-2.0984,-0.0466,0.4105
6066,-2.1356,-13.9654,0.6009,-2.0620,-0.0352,0.4061
6074,-2.1452,-13.7834,0.5052,-2.0326,-0.0177,0.4062
6082,-2.1021,-13.6062,0.4573,-2.0095,0.0076,0.4061
6089,-2.0542,-13.3884,0.3663,-1.9930,0.0328,0.4072
6097,-2.1045,-13.2735,0.2203,-1.9819,0.0681,0.4116
6106,-2.0470,-13.0269,0.3136,-1.9662,0.1037,0.4125
6114,-1.9944,-12.8425,0.2634,-1.9588,0.1430,0.4183
6122,-1.9632,-12.6079,0.2370,-1.9517,0.1856,0.4226
6129,-1.9585,-12.4498,0.2634,-1.9442,0.2305,0.4251
6137,-1.9465,-12.1937,0.2179,-1.9386,0.2799,0.4294
6146,-1.8292,-12.0380,0.1772,-1.9288,0.3269,0.4302
6154,-1.8507,-11.8226,0.3041,-1.9209,0.3756,0.4285
6162,-1.7957,-11.6023,0.2801,-1.9136,0.4223,0.4289
6170,-1.7119,-11.4419,0.1867,-1.9067,0.4706,0.4189
6177,-1.7286,-11.2911,0.2251,-1.8919,0.5193,0.4150
6185,-1.6903,-11.1043,0.1700,-1.8734,0.5681,0.4078
6194,-1.6496,-10.8816,0.1460,-1.8520,0.6155,0.3937
6202,-1.6592,-10.6877,0.2610,-1.8263,0.6654,0.3853
6210,-1.4868,-10.4579,0.2849,-1.7908,0.7101,0.3777
6217,-1.5083,-10.2807,0.2274,-1.7501,0.7517,0.3616
6225,-1.4892,-10.1179,0.2682,-1.7062,0.7902,0.3456
6234,-1.4700,-9.8617,0.3376,-1.6575,0.8252,0.3319
6242,-1.4413,-9.6582,0.2705,-1.5981,0.8619,0.3158
6250,-1.3815,-9.4882,0.3807,-1.5343,0.8893,0.3006
6258,-1.4269,-9.2703,0.4166,-1.4663,0.9165,0.2839
6265,-1.3862,-9.0309,0.4812,-1.3949,0.9462,0.2649
6274,-1.3360,-8.8777,0.4621,-1.3211,0.9645,0.2501
6282,-1.2977,-8.6622,0.5100,-1.2371,0.9824,0.2297
6290,-1.2785,-8.5305,0.4501,-1.1564,0.9996,0.2136
6298,-1.2809,-8.3677,0.3615,-1.0757,1.0095,0.1968
6305,-1.1875,-8.1666,0.4453,-0.9860,1.0112,0.1811
6313,-1.1756,-8.0206,0.3663,-0.8994,1.0164,0.1600
6322,-1.1492,-7.8602,0.4645,-0.8139,1.0184,0.1435
6330,-1.1851,-7.6998,0.4597,-0.7233,1.0159,0.1298
6338,-1.1109,-7.5776,0.4190,-0.6332,1.0130,0.1128
6345,-1.1181,-7.4555,0.3735,-0.5442,1.0039,0.1037
6353,-1.0487,-7.3334,0.4860,-0.4562,0.9940,0.0873
6362,-1.0894,-7.2449,0.5100,-0.3656,0.9734,0.0709
6370,-1.0439,-7.2137,0.4884,-0.2810,0.9582,0.0601
6378,-1.0319,-7.0581,0.3879,-0.1927,0.9309,0.0498
6386,-1.0726,-7.0078,0.5028,-0.1042,0.9038,0.0437
6393,-1.0367,-6.9935,0.4190,-0.0185,0.8768,0.0348
6402,-1.0822,-6.9815,0.5004,0.0634,0.8391,0.0272
6410,-1.0008,-6.9504,0.3472,0.1487,0.8038,0.0215
6418,-1.0367,-7.0078,0.3663,0.2276,0.7546,0.0144
6426,-1.0127,-7.0342,0.4262,0.3099,0.7087,0.0107
6433,-1.0702,-7.0533,0.4238,0.3905,0.6458,0.0065
6441,-1.0534,-7.1850,0.4094,0.4776,0.5958,0.0011
6450,-1.0630,-7.2042,0.4357,0.5577,0.5240,0.0009
6458,-1.0630,-7.3191,0.3735,0.6331,0.4538,-0.0036
6466,-1.1205,-7.4196,0.3974,0.7156,0.3687,-0.0024
6474,-1.1923,-7.5034,0.4597,0.8005,0.2839,0.0020
6481,-1.1851,-7.5944,0.4477,0.8893,0.2000,0.0049
6490,-1.2091,-7.7189,0.5243,0.9750,0.1124,0.0127
6498,-1.3096,-7.9080,0.4525,1.0555,0.0266,0.0156
6506,-1.2091,-7.9392,0.4022,1.1389,-0.0673,0.0228
6514,-1.3072,-8.1523,0.3567,1.2179,-0.1576,0.0238
6521,-1.2857,-8.3390,0.3376,1.2903,-0.2481,0.0265
6530,-1.3336,-8.4755,0.3615,1.3647,-0.3485,0.0282
6538,-1.3599,-8.6933,0.3352,1.4325,-0.4474,0.0256
6546,-1.3503,-8.9136,0.2969,1.4983,-0.5392,0.0203
6554,-1.4269,-9.1506,0.2179,1.5597,-0.6277,0.0149
6562,-1.5036,-9.3063,0.2634,1.6204,-0.7167,0.0065
6569,-1.4293,-9.5313,0.1580,1.6717,-0.7985,-0.0051
6578,-1.5227,-9.8090,0.2298,1.7006,-0.8772,-0.0159
6586,-1.5131,-9.9527,0.1221,1.7654,-0.9537,-0.0249
6594,-1.6305,-10.1586,0.0192,1.8048,-1.0331,-0.0385
6602,-1.7095,-10.3884,0.0575,1.8354,-1.1052,-0.0498
6609,-1.7166,-10.6374,0.0311,1.8690,-1.1752,-0.0604
6618,-1.7597,-10.8793,-0.0335,1.8977,-1.2400,-0.0775
6626,-1.8076,-11.0445,-0.0622,1.9189,-1.2915,-0.0862
6634,-1.7693,-11.3054,-0.1077,1.9332,-1.3404,-0.1019
6642,-1.8890,-11.4060,-0.1987,1.9393,-1.3872,-0.1123
6650,-1.8675,-11.6382,-0.1820,1.9485,-1.4257,-0.1194
6658,-1.9106,-11.8585,-0.2466,1.9498,-1.4574,-0.1331
6666,-1.9201,-11.9973,-0.2418,1.9438,-1.4849,-0.1454
6674,-1.9106,-12.1697,-0.2849,1.9362,-1.5027,-0.1560
6682,-1.9920,-12.4355,-0.2274,1.9252,-1.5186,-0.1719
6690,-1.9968,-12.6390,-0.2634,1.9083,-1.5275,-0.1867
6697,-1.9872,-12.7779,-0.2634,1.8912,-1.5251,-0.2076
6706,-2.0590,-12.9431,-0.2155,1.8767,-1.5286,-0.2261
6714,-2.0375,-13.0795,-0.2370,1.8608,-1.5210,-0.2458
6722,-2.0399,-13.2950,-0.2059,1.8450,-1.5094,-0.2698
6730,-2.0806,-13.3573,-0.2658,1.8383,-1.4921,-0.2927
6738,-2.1165,-13.5775,-0.1844,1.8357,-1.4702,-0.3148
6746,-2.1356,-13.7068,-0.2107,1.8393,-1.4493,-0.3395
6754,-2.1620,-13.8433,-0.1508,1.8470,-1.4237,-0.3631
6762,-2.1931,-13.9821,-0.0622,1.8600,-1.3959,-0.3869
6770,-2.2170,-14.1258,-0.0910,1.8859,-1.3684,-0.4040
6778,-2.2577,-14.2455,-0.0766,1.9103,-1.3399,-0.4271
6786,-2.2960,-14.2886,-0.0192,1.9401,-1.3049,-0.4485
6794,-2.2601,-14.4299,-0.1101,1.9705,-1.2704,-0.4690
6802,-2.2577,-14.5137,-0.0263,2.0025,-1.2339,-0.4911
6810,-2.2936,-14.6429,-0.0239,2.0376,-1.1926,-0.5113
6818,-2.2673,-14.6549,-0.1006,2.0771,-1.1499,-0.5341
6827,-2.3343,-14.7411,-0.0383,2.1128,-1.1029,-0.5533
6834,-2.2841,-14.8536,-0.1245,2.1522,-1.0605,-0.5748
6842,-2.3080,-14.9231,-0.0263,2.1891,-1.0087,-0.5947
6850,-2.3607,-14.9135,-0.0934,2.2282,-0.9649,-0.6138
6858,-2.3008,-14.9614,-0.1101,2.2593,-0.9148,-0.6350
6866,-2.3703,-14.9638,-0.1101,2.2940,-0.8675,-0.6510
6874,-2.3367,-15.0021,-0.0646,2.3229,-0.8155,-0.6682
6882,-2.4014,-15.0883,-0.0958,2.3479,-0.7669,-0.6787
6890,-2.4181,-15.1146,-0.0694,2.3673,-0.7192,-0.6908
6898,-2.3367,-15.0835,-0.1748,2.3844,-0.6728,-0.6948
6906,-2.3774,-15.1050,-0.1173,2.3891,-0.6274,-0.6976
6915,-2.4229,-15.0380,-0.1867,2.3952,-0.5760,-0.6997
6922,-2.3391,-15.0523,-0.2370,2.3884,-0.5339,-0.6952
6930,-2.3942,-14.9350,-0.2921,2.3770,-0.4908,-0.6889
6938,-2.3966,-14.9039,-0.2705,2.3617,-0.4525,-0.6827
6946,-2.4301,-14.7818,-0.2777,2.3369,-0.4110,-0.6703
6955,-2.3727,-14.7243,-0.3400,2.3122,-0.3749,-0.6575
6962,-2.3487,-14.5903,-0.3472,2.2808,-0.3381,-0.6460
6970,-2.3583,-14.5041,-0.2945,2.2437,-0.3044,-0.6274
6978,-2.3272,-14.3652,-0.3256,2.2024,-0.2719,-0.6183
6986,-2.2673,-14.2934,-0.3112,2.1655,-0.2415,-0.5978
6994,-2.2362,-14.0899,-0.3017,2.1188,-0.2130,-0.5822
7002,-2.2577,-13.9773,-0.3208,2.0749,-0.1931,-0.5682
7010,-2.2314,-13.7978,-0.3232,2.0300,-0.1768,-0.5524
7018,-2.2290,-13.6278,-0.2897,1.9875,-0.1612,-0.5425
7026,-2.1691,-13.5392,-0.2921,1.9476,-0.1525,-0.5275
7034,-2.1691,-13.2782,-0.2418,1.9065,-0.1490,-0.5165
7043,-2.1380,-13.1418,-0.2705,1.8750,-0.1423,-0.5033
7050,-2.0303,-13.0173,-0.1915,1.8385,-0.1432,-0.4954
7058,-2.0351,-12.8042,-0.2131,1.8117,-0.1400,-0.4860
7066,-2.0255,-12.7012,-0.1700,1.7766,-0.1522,-0.4750
7074,-2.0303,-12.5121,-0.1987,1.7524,-0.1623,-0.4666
7083,-1.9728,-12.3924,-0.1293,1.7315,-0.1741,-0.4571
7090,-1.9465,-12.1242,-0.0599,1.6902,-0.1909,-0.4451
7098,-1.8818,-11.9878,-0.1125,1.6714,-0.2113,-0.4373
7106,-1.8914,-11.8130,-0.0407,1.6457,-0.2260,-0.4293
7114,-1.8723,-11.6143,-0.1053,1.6162,-0.2490,-0.4202
7122,-1.7909,-11.4610,-0.0814,1.5867,-0.2690,-0.4104
7131,-1.8244,-11.2934,-0.0311,1.5587,-0.2943,-0.4066
7138,-1.7861,-11.1163,-0.0670,1.5304,-0.3134,-0.3968
7146,-1.7502,-10.9391,-0.1173,1.5031,-0.3428,-0.3933
7154,-1.7214,-10.7739,-0.1006,1.4781,-0.3636,-0.3858
7162,-1.7023,-10.5967,-0.0790,1.4488,-0.3886,-0.3785
7171,-1.6855,-10.4291,-0.0934,1.4210,-0.4187,-0.3698
7178,-1.6161,-10.2903,-0.0934,1.3865,-0.4395,-0.3656
7186,-1.5802,-10.1347,-0.0503,1.3527,-0.4655,-0.3624
7194,-1.5514,-9.9695,-0.0838,1.3181,-0.4878,-0.3555
7202,-1.5802,-9.7205,-0.0814,1.2804,-0.5099,-0.3487
7211,-1.5730,-9.6510,-0.1915,1.2417,-0.5277,-0.3423
7219,-1.5323,-9.4355,-0.1532,1.2020,-0.5458,-0.3305
7226,-1.5131,-9.2823,-0.1030,1.1543,-0.5658,-0.3230
7234,-1.5323,-9.1004,-0.2777,1.1020,-0.5813,-0.3144
7242,-1.5179,-8.9854,-0.2322,1.0513,-0.5995,-0.2978
7250,-1.4581,-8.8322,-0.1915,0.9978,-0.6130,-0.2858
7259,-1.4174,-8.6359,-0.2274,0.9414,-0.6229,-0.2715
7266,-1.3982,-8.5281,-0.2682,0.8828,-0.6314,-0.2541
7274,-1.3791,-8.3270,-0.3041,0.8160,-0.6319,-0.2417
7282,-1.3264,-8.2456,-0.3208,0.7570,-0.6347,-0.2273
7290,-1.3312,-8.1163,-0.3519,0.6897,-0.6318,-0.2064
7299,-1.3288,-7.9966,-0.3065,0.6255,-0.6287,-0.1864
7307,-1.3288,-7.7859,-0.2897,0.5598,-0.6237,-0.1695
7314,-1.2713,-7.7093,-0.3089,0.4950,-0.6127,-0.1495
7322,-1.2737,-7.6184,-0.2897,0.4273,-0.5967,-0.1286
7330,-1.2833,-7.5489,-0.3615,0.3627,-0.5862,-0.1069
7339,-1.2929,-7.4627,-0.3112,0.2994,-0.5632,-0.0861
7347,-1.2665,-7.4579,-0.2370,0.2410,-0.5421,-0.0598
7354,-1.2426,-7.3239,-0.3280,0.1755,-0.5127,-0.0377
7362,-1.2043,-7.3789,-0.3112,0.1150,-0.4860,-0.0131
7370,-1.2641,-7.3670,-0.3065,0.0574,-0.4502,0.0099
7378,-1.1827,-7.3430,-0.3065,-0.0008,-0.4175,0.0325
7387,-1.2689,-7.2856,-0.3304,-0.0620,-0.3766,0.0565
7395,-1.2474,-7.3215,-0.2729,-0.1194,-0.3392,0.0823
7402,-1.3192,-7.3215,-0.3232,-0.1800,-0.2923,0.1059
7410,-1.2378,-7.3717,-0.2586,-0.2382,-0.2394,0.1376
7418,-1.2378,-7.4196,-0.2514,-0.3018,-0.1880,0.1592
7427,-1.2378,-7.5417,-0.3304,-0.3599,-0.1339,0.1899
7435,-1.2761,-7.6327,-0.2969,-0.4235,-0.0758,0.2188
7442,-1.3384,-7.6926,-0.3184,-0.4898,-0.0137,0.2486
7450,-1.3288,-7.7428,-0.3519,-0.5530,0.0420,0.2758
7458,-1.3623,-7.9033,-0.2634,-0.6213,0.0979,0.3112
7467,-1.3360,-7.9990,-0.3735,-0.6864,0.1617,0.3364
7475,-1.3815,-8.0110,-0.1963,-0.7454,0.2212,0.3651
7483,-1.3815,-8.2001,-0.3184,-0.8052,0.2807,0.3897
7490,-1.3551,-8.2025,-0.2298,-0.8557,0.3404,0.4159
7498,-1.4102,-8.4084,-0.2993,-0.9080,0.3986,0.4378
7506,-1.4389,-8.5641,-0.1245,-0.9533,0.4557,0.4567
7515,-1.4461,-8.6933,-0.1053,-1.0042,0.5059,0.4779
7523,-1.4317,-8.8825,-0.1077,-1.0473,0.5557,0.4935
7530,-1.4581,-8.9854,-0.1197,-1.0909,0.6047,0.5049
7538,-1.4892,-9.0932,-0.0239,-1.1326,0.6498,0.5135
7546,-1.5155,-9.3877,-0.0838,-1.1686,0.6952,0.5229
7555,-1.5395,-9.4715,-0.0383,-1.2033,0.7361,0.5304
7563,-1.5371,-9.6295,-0.1173,-1.2391,0.7727,0.5353
7571,-1.4988,-9.7899,-0.0192,-1.2712,0.8152,0.5365
7578,-1.5251,-9.9982,-0.0407,-1.3037,0.8491,0.5404
7586,-1.5921,-10.0844,-0.0120,-1.3324,0.8776,0.5427
7595,-1.6759,-10.2544,0.1053,-1.3602,0.9088,0.5462
7603,-1.6161,-10.4579,0.0168,-1.3859,0.9383,0.5468
7611,-1.6759,-10.5752,0.1197,-1.4068,0.9634,0.5449
7618,-1.6927,-10.8290,0.1628,-1.4252,0.9854,0.5461
7626,-1.7358,-10.9415,0.1867,-1.4422,1.0119,0.5417
7634,-1.6879,-11.1929,0.2514,-1.4549,1.0315,0.5421
7643,-1.7741,-11.2623,0.2251,-1.4715,1.0481,0.5379
7651,-1.8507,-11.5137,0.2586,-1.4855,1.0636,0.5301
7658,-1.8483,-11.7005,0.2705,-1.5036,1.0717,0.5268
7666,-1.8531,-11.8154,0.2274,-1.5156,1.0761,0.5205
7674,-1.8938,-11.9423,0.2538,-1.5275,1.0781,0.5160
7683,-1.9537,-12.0644,0.3017,-1.5449,1.0793,0.5079
7691,-1.9896,-12.2152,0.1676,-1.5564,1.0829,0.4983
7699,-1.9872,-12.4115,0.3639,-1.5735,1.0813,0.4884
7706,-2.0039,-12.5672,0.3567,-1.5936,1.0694,0.4843
7714,-2.0183,-12.7659,0.3136,-1.6166,1.0560,0.4744
7723,-2.0638,-12.8521,0.2346,-1.6395,1.0352,0.4684
7731,-2.0494,-13.0340,0.3041,-1.6714,1.0106,0.4611
7739,-2.1117,-13.1633,0.2729,-1.7050,0.9895,0.4546
7746,-2.1069,-13.2232,0.2227,-1.7409,0.9586,0.4513
7754,-2.1332,-13.3453,0.2538,-1.7854,0.9241,0.4507
7762,-2.2075,-13.5225,0.2322,-1.8281,0.8885,0.4501
7771,-2.2098,-13.5368,0.2394,-1.8707,0.8601,0.4493
7779,-2.2194,-13.7331,0.1891,-1.9189,0.8259,0.4487
7787,-2.1715,-13.7643,0.2298,-1.9641,0.7985,0.4470
7794,-2.2338,-13.8552,0.2801,-2.0050,0.7674,0.4470
7802,-2.2601,-13.9845,0.2251,-2.0492,0.7346,0.4501
7811,-2.2649,-13.9869,0.2346,-2.0908,0.7051,0.4467
7819,-2.2984,-14.1306,0.3041,-2.1321,0.6788,0.4447
7827,-2.3200,-14.2192,0.2945,-2.1693,0.6496,0.4474
7834,-2.2984,-14.2623,0.3089,-2.2034,0.6193,0.4466
7842,-2.2625,-14.3461,0.4022,-2.2304,0.5852,0.4439
7851,-2.2984,-14.3700,0.3519,-2.2529,0.5582,0.4457
7859,-2.2625,-14.3676,0.4214,-2.2707,0.5264,0.4417
7867,-2.2817,-14.4538,0.5291,-2.2816,0.4990,0.4390
7875,-2.2410,-14.4011,0.4669,-2.2878,0.4692,0.4385
7882,-2.2984,-14.4346,0.4980,-2.2881,0.4381,0.4373
7890,-2.2314,-14.4777,0.4956,-2.2833,0.4024,0.4378
7899,-2.2505,-14.4682,0.5267,-2.2763,0.3671,0.4357
7907,-2.2098,-14.4251,0.5339,-2.2669,0.3367,0.4343
7915,-2.2673,-14.3054,0.5650,-2.2545,0.3035,0.4335
7922,-2.2817,-14.2814,0.5674,-2.2394,0.2742,0.4350
7930,-2.2625,-14.2263,0.5986,-2.2158,0.2531,0.4318
7939,-2.1787,-14.1402,0.5555,-2.1922,0.2369,0.4271
7947,-2.1739,-14.0300,0.6249,-2.1638,0.2192,0.4274
7955,-2.1931,-13.9534,0.5890,-2.1373,0.1990,0.4265
7963,-2.1787,-13.8481,0.5315,-2.1092,0.1829,0.4278
7970,-2.1428,-13.8050,0.5722,-2.0808,0.1684,0.4266
7979,-2.1404,-13.5895,0.5746,-2.0468,0.1635,0.4271
7987,-2.0949,-13.5009,0.6177,-2.0126,0.1612,0.4215
7995,-2.0710,-13.4339,0.5195,-1.9823,0.1575,0.4187
8003,-2.0566,-13.3189,0.4908,-1.9518,0.1700,0.4146
8010,-2.0183,-13.1561,0.4788,-1.9184,0.1761,0.4110
8018,-2.0039,-12.9766,0.3352,-1.8860,0.1887,0.4057
8027,-1.9249,-12.8856,0.4142,-1.8619,0.1965,0.4045
8035,-1.9800,-12.6773,0.4142,-1.8297,0.2084,0.4021
8043,-1.9417,-12.6294,0.3759,-1.8062,0.2289,0.4002
8051,-1.8914,-12.3804,0.3256,-1.7805,0.2447,0.3934
8058,-1.8603,-12.3086,0.3783,-1.7604,0.2639,0.3916
8067,-1.8052,-12.2224,0.2825,-1.7408,0.2852,0.3853
8075,-1.7909,-11.9830,0.3112,-1.7166,0.3122,0.3817
8083,-1.7909,-11.8800,0.2801,-1.7035,0.3340,0.3757
8091,-1.7741,-11.6454,0.2514,-1.6814,0.3655,0.3677
8098,-1.7166,-11.5377,0.2610,-1.6578,0.3897,0.3647
8107,-1.6616,-11.3485,0.3017,-1.6383,0.4135,0.3553
8115,-1.7214,-11.3054,0.2753,-1.6166,0.4398,0.3517
8123,-1.6640,-11.1426,0.2059,-1.5948,0.4666,0.3419
8131,-1.6448,-10.9583,0.2370,-1.5660,0.4922,0.3308
8139,-1.6185,-10.8218,0.2993,-1.5420,0.5157,0.3240
8146,-1.5826,-10.7524,0.2466,-1.5096,0.5413,0.3148
8155,-1.5754,-10.5489,0.2562,-1.4798,0.5662,0.3035
8163,-1.5203,-10.3334,0.2274,-1.4417,0.5938,0.2892
8171,-1.5514,-10.1873,0.3089,-1.4039,0.6146,0.2794
8179,-1.4748,-10.0102,0.2634,-1.3631,0.6359,0.2662
8186,-1.4724,-9.8857,0.2993,-1.3199,0.6531,0.2539
8195,-1.4581,-9.7205,0.3304,-1.2722,0.6647,0.2427
8203,-1.3599,-9.6031,0.3591,-1.2256,0.6808,0.2334
8211,-1.3886,-9.4355,0.4118,-1.1720,0.6923,0.2210
8219,-1.3982,-9.2799,0.3615,-1.1195,0.7029,0.2060
8227,-1.3503,-9.1554,0.3855,-1.0640,0.7113,0.1932
8235,-1.3503,-8.9830,0.2131,-1.0066,0.7208,0.1796
8243,-1.2929,-8.9040,0.4573,-0.9466,0.7246,0.1669
8251,-1.2785,-8.7460,0.3783,-0.8861,0.7269,0.1595
8259,-1.3168,-8.6335,0.3496,-0.8208,0.7316,0.1455
8267,-1.2354,-8.5234,0.3735,-0.7546,0.7241,0.1311
8274,-1.3096,-8.4060,0.3256,-0.6896,0.7221,0.1202
8283,-1.2330,-8.2839,0.3759,-0.6243,0.7151,0.1102
8291,-1.2091,-8.1427,0.3855,-0.5585,0.7053,0.0993
8299,-1.2258,-8.0972,0.4022,-0.4854,0.6963,0.0910
8307,-1.2186,-8.0613,0.3472,-0.4166,0.6833,0.0801
8314,-1.1636,-7.9416,0.3041,-0.3483,0.6618,0.0714
8323,-1.1396,-7.8745,0.4525,-0.2766,0.6403,0.0602
8331,-1.1803,-7.8554,0.3472,-0.2069,0.6154,0.0509
8339,-1.2115,-7.8243,0.4381,-0.1407,0.5872,0.0420
8347,-1.1349,-7.7907,0.3615,-0.0689,0.5582,0.0350
8355,-1.1492,-7.8219,0.3280,-0.0003,0.5249,0.0205
8363,-1.1205,-7.7907,0.3519,0.0687,0.4890,0.0184
8371,-1.1277,-7.7476,0.3926,0.1363,0.4511,0.0119
8379,-1.1947,-7.8003,0.3615,0.2077,0.4037,-0.0001
8387,-1.2115,-7.8243,0.3328,0.2771,0.3596,-0.0029
8395,-1.1732,-7.9176,0.3352,0.3487,0.3091,-0.0096
8402,-1.1947,-7.8650,0.3591,0.4175,0.2531,-0.0163
8411,-1.1827,-7.9583,0.4573,0.4890,0.1940,-0.0246
8419,-1.2426,-8.0900,0.4357,0.5588,0.1344,-0.0290
8427,-1.1971,-8.1187,0.3328,0.6346,0.0718,-0.0318
8435,-1.2498,-8.1714,0.3903,0.7087,0.0099,-0.0320
8443,-1.2857,-8.2791,0.2777,0.7769,-0.0538,-0.0329
8451,-1.2713,-8.3606,0.3735,0.8479,-0.1180,-0.0389
8459,-1.3455,-8.4300,0.3376,0.9180,-0.1765,-0.0353
8467,-1.3264,-8.5904,0.3017,0.9839,-0.2357,-0.0430
8475,-1.3503,-8.7101,0.2610,1.0471,-0.2922,-0.0464
8483,-1.3527,-8.9112,0.2562,1.1076,-0.3476,-0.0532
8491,-1.4174,-8.9376,0.2490,1.1628,-0.4025,-0.0642
8499,-1.3958,-9.1626,0.2298,1.2136,-0.4578,-0.0722
8507,-1.3934,-9.3326,0.2155,1.2678,-0.5105,-0.0802
8515,-1.4533,-9.4164,0.2993,1.3146,-0.5661,-0.0926
8523,-1.4317,-9.5553,0.1915,1.3603,-0.6157,-0.1023
8531,-1.4748,-9.7492,0.2251,1.4047,-0.6663,-0.1110
8539,-1.5395,-9.9479,0.1484,1.4464,-0.7127,-0.1236
8547,-1.6305,-10.0604,0.2083,1.4875,-0.7627,-0.1290
8555,-1.6185,-10.2376,0.0742,1.5263,-0.8017,-0.1402
8563,-1.5945,-10.4483,0.0168,1.5623,-0.8430,-0.1504
8571,-1.6831,-10.5824,0.1365,1.5968,-0.8857,-0.1579
8579,-1.6903,-10.7667,0.0790,1.6286,-0.9226,-0.1659
8587,-1.6951,-10.9846,0.0455,1.6463,-0.9551,-0.1732
8595,-1.7885,-11.0492,-0.0168,1.6719,-0.9843,-0.1791
8603,-1.7621,-11.1857,-0.0072,1.6741,-1.0120,-0.1884
8611,-1.8387,-11.4132,-0.1077,1.6758,-1.0372,-0.1956
8620,-1.8675,-11.5640,-0.1221,1.6832,-1.0523,-0.2064
8627,-1.8364,-11.7172,-0.1580,1.7031,-1.0660,-0.2096
8635,-1.8747,-11.9040,-0.1891,1.6918,-1.0758,-0.2165
8643,-1.9297,-11.9471,-0.1149,1.6816,-1.0825,-0.2278
8651,-1.9225,-12.0644,-0.2083,1.7016,-1.0881,-0.2394
8659,-1.9321,-12.2032,-0.0934,1.6750,-1.0916,-0.2497
8667,-1.9441,-12.4068,-0.0766,1.6718,-1.0902,-0.2602
8675,-1.9776,-12.5049,-0.1772,1.6745,-1.0910,-0.2745
8683,-1.9992,-12.5720,-0.0359,1.6752,-1.0873,-0.2871
8691,-1.9848,-12.7587,-0.0718,1.6754,-1.0774,-0.2971
8699,-2.0039,-12.7994,-0.0886,1.6746,-1.0706,-0.3116
8708,-2.0375,-12.9047,-0.0958,1.6836,-1.0568,-0.3289
8715,-2.0590,-12.9861,-0.0455,1.7042,-1.0444,-0.3415
8723,-2.0542,-13.0867,-0.0455,1.7032,-1.0331,-0.3555
8731,-2.0973,-13.1513,-0.0934,1.7264,-1.0143,-0.3737
8739,-2.0830,-13.1705,-0.0503,1.7587,-1.0010,-0.3889
8748,-2.0399,-13.2782,-0.0215,1.7716,-0.9795,-0.4032
8755,-2.0423,-13.3692,-0.0239,1.7957,-0.9579,-0.4187
8763,-2.1332,-13.4698,-0.0335,1.8206,-0.9365,-0.4329
8771,-2.0638,-13.5584,-0.0407,1.8453,-0.9124,-0.4502
8779,-2.1141,-13.5464,-0.0096,1.8636,-0.8848,-0.4676
8787,-2.0806,-13.6350,-0.0790,1.8868,-0.8560,-0.4814
8796,-2.1739,-13.6733,0.0096,1.9099,-0.8259,-0.4956
8803,-2.1237,-13.6781,0.0048,1.9355,-0.7975,-0.5075
8811,-2.1500,-13.7547,-0.1197,1.9541,-0.7707,-0.5209
8819,-2.0997,-13.8313,-0.0838,1.9744,-0.7370,-0.5336
8827,-2.2194,-13.7834,-0.0527,1.9926,-0.7117,-0.5395
8836,-2.2027,-13.7834,-0.0910,2.0123,-0.6760,-0.5473
8843,-2.1715,-13.7236,-0.1604,2.0227,-0.6483,-0.5546
8851,-2.1261,-13.8337,-0.1484,2.0391,-0.6169,-0.5570
8859,-2.2601,-13.7643,-0.0862,2.0440,-0.5842,-0.5612
8867,-2.1859,-13.8026,-0.1365,2.0460,-0.5576,-0.5598
8876,-2.2290,-13.7547,-0.2035,2.0438,-0.5288,-0.5617
8883,-2.2314,-13.7236,-0.1197,2.0363,-0.4994,-0.5596
8891,-2.1644,-13.6446,-0.2155,2.0315,-0.4688,-0.5548
8899,-2.2458,-13.6254,-0.2322,2.0129,-0.4470,-0.5488
8907,-2.2266,-13.5823,-0.2083,1.9953,-0.4202,-0.5425
8915,-2.1261,-13.4746,-0.2011,1.9741,-0.3957,-0.5311
8924,-2.1524,-13.3668,-0.1820,1.9470,-0.3761,-0.5273
8931,-2.1620,-13.2926,-0.2346,1.9231,-0.3527,-0.5155
8939,-2.2027,-13.1561,-0.2586,1.8940,-0.3300,-0.5037
8947,-2.1763,-13.0580,-0.2801,1.8606,-0.3168,-0.4922
8955,-2.1213,-12.9287,-0.2993,1.8259,-0.2998,-0.4764
8964,-2.0351,-12.8066,-0.2035,1.7890,-0.2883,-0.4708
8971,-2.0901,-12.6917,-0.2418,1.7595,-0.2787,-0.4582
8979,-1.9992,-12.5696,-0.2203,1.7172,-0.2667,-0.4465
8987,-1.9417,-12.4163,-0.2298,1.6838,-0.2611,-0.4398
8995,-1.9441,-12.3038,-0.2538,1.6693,-0.2529,-0.4318
9004,-1.9632,-12.1673,-0.1915,1.6402,-0.2526,-0.4234
9012,-1.9704,-12.0572,-0.1125,1.6026,-0.2558,-0.4185
9019,-1.8699,-11.9040,-0.0575,1.5727,-0.2650,-0.4126
9027,-1.8842,-11.8154,-0.1269,1.5410,-0.2674,-0.4032
9035,-1.8555,-11.6238,-0.1844,1.5108,-0.2729,-0.3964
9043,-1.8890,-11.5113,-0.1149,1.4817,-0.2848,-0.3897
9052,-1.7669,-11.3988,-0.2083,1.4513,-0.2972,-0.3826
9059,-1.7454,-11.2911,-0.0766,1.4204,-0.3078,-0.3750
9067,-1.7765,-11.1282,-0.0742,1.3929,-0.3222,-0.3681
9075,-1.7621,-10.9774,-0.1437,1.3599,-0.3355,-0.3656
9083,-1.7478,-10.8984,-0.1006,1.3275,-0.3449,-0.3575
9092,-1.6568,-10.7069,-0.0599,1.2998,-0.3636,-0.3547
9100,-1.6472,-10.6039,-0.0958,1.2658,-0.3722,-0.3479
9107,-1.6592,-10.4555,-0.0766,1.2325,-0.3866,-0.3377
9115,-1.6759,-10.3046,-0.0599,1.1992,-0.4006,-0.3312
9123,-1.6209,-10.1586,-0.1460,1.1611,-0.4150,-0.3219
9132,-1.6281,-10.0485,-0.0766,1.1381,-0.4257,-0.3171
9140,-1.6137,-9.9383,-0.0527,1.1010,-0.4426,-0.3067
9147,-1.4988,-9.7995,-0.1365,1.0682,-0.4527,-0.2983
9155,-1.5778,-9.5792,-0.1245,1.0349,-0.4640,-0.2903
9163,-1.5490,-9.4906,-0.1891,0.9978,-0.4726,-0.2821
9171,-1.5921,-9.3877,-0.0670,0.9613,-0.4787,-0.2730
9180,-1.4389,-9.2536,-0.1341,0.9252,-0.4866,-0.2635
9188,-1.4772,-9.0812,-0.1796,0.8813,-0.4908,-0.2535
9195,-1.4365,-9.0597,-0.2251,0.8403,-0.4998,-0.2421
9203,-1.4485,-8.8490,-0.1628,0.7923,-0.4964,-0.2284
9211,-1.4389,-8.8131,-0.1867,0.7462,-0.5029,-0.2134
9220,-1.4198,-8.6598,-0.1939,0.7017,-0.4994,-0.1984
9228,-1.4293,-8.5856,-0.1796,0.6495,-0.4959,-0.1837
9235,-1.4533,-8.4779,-0.1867,0.6019,-0.4922,-0.1617
9243,-1.4054,-8.3917,-0.2251,0.5564,-0.4866,-0.1487
9251,-1.3815,-8.3606,-0.2562,0.4999,-0.4724,-0.1308
9260,-1.3695,-8.2408,-0.2538,0.4485,-0.4610,-0.1148
9268,-1.3527,-8.2097,-0.2179,0.3922,-0.4501,-0.0965
9276,-1.3767,-8.1547,-0.3160,0.3401,-0.4351,-0.0791
9283,-1.3408,-8.0948,-0.2394,0.2858,-0.4169,-0.0597
9291,-1.3384,-8.0206,-0.2298,0.2268,-0.3953,-0.0397
9299,-1.3336,-7.9679,-0.2753,0.1752,-0.3717,-0.0177
9308,-1.3264,-7.9152,-0.2729,0.1171,-0.3481,0.0031
9316,-1.3479,-7.9631,-0.2274,0.0645,-0.3182,0.0257
9323,-1.3096,-7.9751,-0.2562,0.0132,-0.2908,0.0460
9331,-1.3312,-7.9847,-0.2322,-0.0409,-0.2547,0.0666
9339,-1.2953,-7.9248,-0.3041,-0.0935,-0.2197,0.0894
9348,-1.2977,-7.9751,-0.2825,-0.1478,-0.1797,0.1111
9356,-1.3527,-8.0134,-0.2490,-0.2048,-0.1376,0.1323
9364,-1.3671,-8.0589,-0.2777,-0.2610,-0.0935,0.1548
9371,-1.3551,-8.1163,-0.3041,-0.3196,-0.0449,0.1792
9379,-1.3288,-8.1235,-0.2729,-0.3737,-0.0020,0.1982
9388,-1.3431,-8.1786,-0.2059,-0.4297,0.0445,0.2217
9396,-1.3408,-8.2744,-0.2370,-0.4834,0.0925,0.2447
9404,-1.3575,-8.3917,-0.2251,-0.5365,0.1412,0.2651
9411,-1.3288,-8.4252,-0.2418,-0.5817,0.1901,0.2866
9419,-1.4078,-8.4587,-0.2203,-0.6326,0.2372,0.3066
9427,-1.4006,-8.5425,-0.1700,-0.6742,0.2835,0.3251
9436,-1.3192,-8.6838,-0.1077,-0.7197,0.3321,0.3425
9444,-1.4509,-8.7173,-0.1197,-0.7593,0.3760,0.3555
9451,-1.3862,-8.9160,-0.0862,-0.7962,0.4197,0.3691
9459,-1.4126,-9.0070,-0.0527,-0.8335,0.4652,0.3841
9467,-1.4509,-9.0716,-0.0694,-0.8737,0.5081,0.3953
9476,-1.4269,-9.1506,-0.0120,-0.9074,0.5482,0.4020
9484,-1.4700,-9.2703,0.0000,-0.9390,0.5875,0.4116
9492,-1.6233,-9.3494,-0.0192,-0.9749,0.6246,0.4202
9499,-1.5107,-9.5337,-0.0383,-1.0059,0.6603,0.4258
9507,-1.5730,-9.5936,-0.0215,-1.0355,0.6980,0.4355
9516,-1.5682,-9.8043,0.0479,-1.0662,0.7320,0.4399
9524,-1.5490,-9.9240,0.0479,-1.0920,0.7649,0.4437
9532,-1.5897,-10.0413,0.0359,-1.1213,0.7871,0.4458
9539,-1.5969,-10.1418,0.0144,-1.1470,0.8111,0.4522
9547,-1.6185,-10.3022,0.0862,-1.1719,0.8232,0.4555
9555,-1.6137,-10.4483,0.1365,-1.2013,0.8400,0.4591
9564,-1.7238,-10.5752,0.1293,-1.2271,0.8507,0.4614
9572,-1.7717,-10.7093,0.1293,-1.2522,0.8637,0.4648
9580,-1.7358,-10.7955,0.1389,-1.2754,0.8689,0.4656
9587,-1.7358,-11.0205,0.1317,-1.2993,0.8735,0.4679
9595,-1.7358,-11.0971,0.1437,-1.3187,0.8793,0.4656
9604,-1.8028,-11.2432,0.2251,-1.3403,0.8797,0.4648
9612,-1.7885,-11.3988,0.1532,-1.3614,0.8728,0.4634
9620,-1.8004,-11.4706,0.2011,-1.3852,0.8707,0.4600
9627,-1.8124,-11.6095,0.1413,-1.4075,0.8615,0.4596
9635,-1.8771,-11.7172,0.2227,-1.4298,0.8521,0.4571
9644,-1.9369,-11.8944,0.2825,-1.4610,0.8468,0.4575
9652,-1.9561,-11.9375,0.1963,-1.4846,0.8307,0.4555
9660,-1.9489,-12.1027,0.2059,-1.5138,0.8194,0.4538
9668,-1.9058,-12.1985,0.2131,-1.5438,0.8059,0.4499
9675,-1.9848,-12.2799,0.1317,-1.5712,0.7906,0.4495
9683,-1.9680,-12.4187,0.1891,-1.6010,0.7698,0.4486
9692,-2.0662,-12.4379,0.2394,-1.6285,0.7537,0.4529
9700,-1.9944,-12.6438,0.2562,-1.6590,0.7353,0.4495
9708,-1.9537,-12.6270,0.3089,-1.6867,0.7095,0.4529
9715,-2.0758,-12.7563,0.1891,-1.7118,0.6927,0.4482
9723,-2.0159,-12.8138,0.2658,-1.7407,0.6692,0.4453
9732,-2.0566,-12.9383,0.2394,-1.7686,0.6531,0.4435
9740,-2.0590,-12.9311,0.2586,-1.7964,0.6324,0.4378
9748,-2.0423,-13.0005,0.2466,-1.8231,0.6109,0.4355
9756,-2.1021,-13.1202,0.3376,-1.8462,0.5853,0.4335
9763,-2.0734,-13.1777,0.3041,-1.8690,0.5590,0.4341
9772,-2.0016,-13.2519,0.2466,-1.8856,0.5327,0.4301
9780,-2.0806,-13.2471,0.3065,-1.9045,0.5068,0.4269
9788,-2.1165,-13.2256,0.3567,-1.9168,0.4776,0.4253
9796,-2.0925,-13.2926,0.3711,-1.9251,0.4554,0.4199
9803,-2.0710,-13.3118,0.4166,-1.9368,0.4298,0.4211
9811,-2.1117,-13.3333,0.4142,-1.9410,0.4068,0.4159
9820,-2.1284,-13.3525,0.4262,-1.9448,0.3818,0.4153
9828,-2.0997,-13.3094,0.4693,-1.9484,0.3600,0.4134
9836,-2.1117,-13.3189,0.3831,-1.9474,0.3327,0.4145
9844,-2.1093,-13.3189,0.4717,-1.9398,0.3062,0.4142
9851,-2.0973,-13.3022,0.3903,-1.9343,0.2844,0.4158
9860,-2.1093,-13.2040,0.4190,-1.9240,0.2695,0.4109
9868,-2.0662,-13.1825,0.4501,-1.9079,0.2535,0.4122
9876,-2.0303,-13.1346,0.4764,-1.8956,0.2435,0.4116
9884,-2.0159,-13.0412,0.4190,-1.8795,0.2324,0.4093
9891,-2.0375,-12.9526,0.4381,-1.8606,0.2150,0.4104
9900,-1.9704,-12.9047,0.3639,-1.8434,0.2126,0.4106
9908,-1.9872,-12.8664,0.3831,-1.8211,0.2048,0.4086
9916,-1.9968,-12.7898,0.3567,-1.8040,0.2070,0.4106
9924,-2.0039,-12.6629,0.4334,-1.7794,0.2038,0.4074
9932,-2.0039,-12.6127,0.4693,-1.7637,0.2053,0.4049
9939,-1.9417,-12.5097,0.4357,-1.7351,0.2118,0.4029
9948,-1.9537,-12.4163,0.3855,-1.7171,0.2205,0.3993
9956,-1.8986,-12.3038,0.3328,-1.6942,0.2238,0.3974
9964,-1.8603,-12.2368,0.3831,-1.6675,0.2302,0.3961
9972,-1.8747,-12.1242,0.2705,-1.6426,0.2430,0.3910
9979,-1.8292,-11.9949,0.3663,-1.6274,0.2505,0.3874
9988,-1.8292,-11.9183,0.3352,-1.6025,0.2682,0.3808
9996,-1.7933,-11.8010,0.3328,-1.5783,0.2805,0.3750
10004,-1.7526,-11.6526,0.3615,-1.5568,0.3043,0.3693
10012,-1.7142,-11.5712,0.3112,-1.5291,0.3232,0.3613
10020,-1.7071,-11.4395,0.3017,-1.5090,0.3465,0.3507
10028,-1.7502,-11.3701,0.2538,-1.4842,0.3653,0.3461
10036,-1.7166,-11.2264,0.3184,-1.4594,0.3841,0.3371
10044,-1.6424,-11.1115,0.2969,-1.4330,0.4028,0.3311
10052,-1.6424,-11.0133,0.2729,-1.4053,0.4223,0.3159
10060,-1.6233,-10.9367,0.2801,-1.3785,0.4397,0.3094
10067,-1.5945,-10.7069,0.3328,-1.3487,0.4587,0.2988
10076,-1.6448,-10.6470,0.2897,-1.3215,0.4835,0.2878
10084,-1.5754,-10.5105,0.3089,-1.2906,0.5000,0.2747
10092,-1.6137,-10.3956,0.3017,-1.2558,0.5213,0.2650
10100,-1.5897,-10.2544,0.2346,-1.2199,0.5400,0.2558
10108,-1.4748,-10.1658,0.3328,-1.1846,0.5522,0.2449
10116,-1.5083,-10.0389,0.2969,-1.1522,0.5694,0.2341
10124,-1.5467,-9.9000,0.3639,-1.1095,0.5818,0.2200
10132,-1.4868,-9.7923,0.3711,-1.0682,0.5907,0.2152
10140,-1.4868,-9.6103,0.3208,-1.0304,0.5978,0.2040
10148,-1.3862,-9.4499,0.2538,-0.9850,0.6078,0.1917
10156,-1.4365,-9.4116,0.2705,-0.9365,0.6126,0.1804
10164,-1.4389,-9.2799,0.3208,-0.8924,0.6177,0.1703
10172,-1.3862,-9.2033,0.2825,-0.8436,0.6197,0.1599
10180,-1.4653,-9.1219,0.3017,-0.7933,0.6225,0.1492
10188,-1.3934,-8.9352,0.3208,-0.7404,0.6190,0.1372
10195,-1.3934,-8.8514,0.2682,-0.6899,0.6135,0.1311
10204,-1.2881,-8.7556,0.3591,-0.6350,0.6091,0.1186
10212,-1.2881,-8.7005,0.3855,-0.5788,0.5969,0.1087
10220,-1.2833,-8.6455,0.3232,-0.5267,0.5897,0.0998
10228,-1.3216,-8.5258,0.4142,-0.4676,0.5745,0.0915
10236,-1.2546,-8.5281,0.3352,-0.4112,0.5604,0.0809
10244,-1.3024,-8.4276,0.4477,-0.3523,0.5429,0.0734
10252,-1.3120,-8.3606,0.3615,-0.2967,0.5256,0.0626
10260,-1.3096,-8.3127,0.3519,-0.2352,0.5041,0.0566
10268,-1.1947,-8.3438,0.3472,-0.1760,0.4824,0.0473
10276,-1.2450,-8.4036,0.3543,-0.1162,0.4546,0.0392
10284,-1.2163,-8.3175,0.3519,-0.0618,0.4234,0.0304
10292,-1.2641,-8.2839,0.4477,0.0029,0.3920,0.0208
10300,-1.2234,-8.3031,0.3352,0.0630,0.3568,0.0129
10308,-1.2258,-8.3318,0.3280,0.1200,0.3206,0.0041
10316,-1.1971,-8.3438,0.3711,0.1821,0.2781,-0.0032
10324,-1.3001,-8.3797,0.3591,0.2406,0.2401,-0.0092
10332,-1.1827,-8.4204,0.3687,0.3070,0.1939,-0.0176
10340,-1.2258,-8.3869,0.3903,0.3629,0.1475,-0.0242
10348,-1.2594,-8.4922,0.3639,0.4238,0.0935,-0.0318
10356,-1.2953,-8.5234,0.3615,0.4851,0.0385,-0.0360
10364,-1.3216,-8.5425,0.3232,0.5470,-0.0136,-0.0416
10372,-1.2929,-8.6239,0.3615,0.6039,-0.0658,-0.0433
10380,-1.2785,-8.6646,0.3280,0.6600,-0.1143,-0.0529
10388,-1.3551,-8.7652,0.1963,0.7133,-0.1609,-0.0561
10396,-1.3312,-8.8418,0.2849,0.7694,-0.2101,-0.0669
10404,-1.3024,-8.8370,0.3160,0.8190,-0.2578,-0.0733
10413,-1.4006,-8.9950,0.2658,0.8653,-0.3072,-0.0787
10420,-1.4293,-9.1219,0.2586,0.9148,-0.3560,-0.0850
10428,-1.3838,-9.2129,0.1963,0.9533,-0.4045,-0.0911
10436,-1.4246,-9.2751,0.2203,0.9999,-0.4491,-0.0985
10444,-1.4533,-9.4858,0.2179,1.0408,-0.4939,-0.1092
10452,-1.4557,-9.5720,0.1293,1.0797,-0.5347,-0.1204
10460,-1.5562,-9.6630,0.1532,1.1189,-0.5716,-0.1275
10468,-1.4437,-9.8282,0.1173,1.1594,-0.6065,-0.1382
10476,-1.5395,-9.8737,0.1748,1.1979,-0.6436,-0.1471
10484,-1.6520,-9.9766,0.1628,1.2283,-0.6730,-0.1552
10492,-1.5969,-10.2161,0.1413,1.2628,-0.7107,-0.1649
10501,-1.6640,-10.2759,0.0958,1.2945,-0.7362,-0.1712
10508,-1.6712,-10.4100,0.1053,1.3257,-0.7647,-0.1779
10516,-1.6448,-10.5105,0.1221,1.3503,-0.7937,-0.1860
10524,-1.6352,-10.6877,0.0407,1.3717,-0.8114,-0.1915
10532,-1.7071,-10.8002,0.0718,1.3923,-0.8332,-0.1932
10541,-1.7071,-10.9343,0.0144,1.4128,-0.8474,-0.2081
10548,-1.7406,-11.0852,-0.0599,1.4286,-0.8631,-0.2138
10556,-1.7549,-11.1498,0.0048,1.4405,-0.8729,-0.2232
10564,-1.7454,-11.2791,-0.0311,1.4530,-0.8771,-0.2296
10572,-1.8387,-11.3509,-0.0718,1.4607,-0.8804,-0.2369
10580,-1.8292,-11.4994,-0.1030,1.4723,-0.8808,-0.2471
10589,-1.8268,-11.5927,-0.1053,1.4778,-0.8827,-0.2529
10596,-1.8507,-11.6837,-0.1341,1.4849,-0.8820,-0.2637
10604,-1.8651,-11.7603,-0.0168,1.4943,-0.8805,-0.2745
10612,-1.8651,-11.8920,0.0144,1.5079,-0.8757,-0.2815
10620,-1.9872,-11.9495,-0.0503,1.5151,-0.8715,-0.2911
10629,-1.7980,-11.9949,-0.0455,1.5267,-0.8607,-0.3031
10636,-1.8579,-12.0787,-0.0862,1.5420,-0.8508,-0.3127
10644,-1.8818,-12.2703,-0.0527,1.5568,-0.8394,-0.3275
10652,-1.9848,-12.2799,-0.0599,1.5713,-0.8215,-0.3395
10660,-1.9465,-12.2990,-0.0503,1.5851,-0.8095,-0.3525
10669,-1.9465,-12.3972,0.0024,1.6004,-0.7955,-0.3640
10677,-2.0087,-12.3996,-0.0551,1.6085,-0.7774,-0.3753
10684,-2.0303,-12.5360,-0.0527,1.6200,-0.7537,-0.3852
10692,-1.9561,-12.5959,0.0575,1.6541,-0.7405,-0.3968
10700,-1.9896,-12.6031,-0.0192,1.6690,-0.7180,-0.4076
10708,-1.9920,-12.7180,-0.0311,1.6815,-0.7001,-0.4198
10717,-2.0423,-12.7372,-0.0335,1.6784,-0.6817,-0.4283
10724,-1.9992,-12.7898,-0.1006,1.6858,-0.6599,-0.4393
10732,-1.9728,-12.8257,-0.0335,1.6999,-0.6412,-0.4471
10740,-2.0375,-12.8736,-0.1460,1.7313,-0.6233,-0.4534
10748,-1.9992,-12.8808,-0.0575,1.7393,-0.6027,-0.4596
10757,-2.0853,-12.8976,-0.0958,1.7420,-0.5824,-0.4651
10764,-2.0830,-12.9574,-0.1006,1.7541,-0.5638,-0.4694
10772,-2.0087,-12.9790,-0.1484,1.7605,-0.5446,-0.4707
10780,-2.0614,-12.9000,-0.0455,1.7729,-0.5248,-0.4703
10788,-2.0279,-12.8952,-0.0359,1.7705,-0.5039,-0.4712
10797,-2.0231,-12.9311,-0.0096,1.7710,-0.4878,-0.4731
10805,-2.0446,-12.8497,-0.1700,1.7764,-0.4698,-0.4706
10812,-2.0830,-12.7946,-0.1700,1.7704,-0.4494,-0.4696
10820,-2.0949,-12.7012,-0.2634,1.7628,-0.4373,-0.4659
10828,-1.9992,-12.7132,-0.1317,1.7507,-0.4226,-0.4591
10836,-2.0686,-12.6773,-0.1365,1.7428,-0.4054,-0.4567
10845,-2.0183,-12.6510,-0.0910,1.7325,-0.3916,-0.4506
10852,-2.0566,-12.6318,-0.1101,1.6880,-0.3745,-0.4470
10860,-1.9992,-12.5360,-0.2370,1.6722,-0.3633,-0.4421
10868,-1.9513,-12.3948,-0.1269,1.6701,-0.3537,-0.4355
10876,-1.9752,-12.3804,-0.1724,1.6521,-0.3452,-0.4267
10885,-2.0231,-12.2631,-0.2203,1.6125,-0.3355,-0.4182
10893,-1.9297,-12.2176,-0.1532,1.6001,-0.3281,-0.4086
10900,-1.9249,-12.0309,-0.2346,1.5752,-0.3230,-0.4010
10908,-1.9393,-12.0165,-0.1365,1.5472,-0.3148,-0.3934
10916,-1.8986,-11.8968,-0.1939,1.5198,-0.3140,-0.3845
10925,-1.9082,-11.7938,-0.1365,1.4977,-0.3114,-0.3801
10933,-1.8172,-11.6669,-0.1556,1.4711,-0.3139,-0.3729
10940,-1.8555,-11.6646,-0.0982,1.4433,-0.3099,-0.3679
10948,-1.7885,-11.5353,-0.1245,1.4184,-0.3151,-0.3611
10956,-1.8340,-11.5017,-0.1269,1.3911,-0.3184,-0.3580
10964,-1.7861,-11.3605,-0.1006,1.3618,-0.3238,-0.3544
10973,-1.7837,-11.1809,-0.1389,1.3334,-0.3259,-0.3513
10981,-1.7837,-11.1378,-0.1628,1.3078,-0.3312,-0.3433
10988,-1.7669,-11.0109,-0.1341,1.2758,-0.3380,-0.3411
10996,-1.7334,-10.9056,-0.0790,1.2458,-0.3428,-0.3360
11004,-1.7526,-10.8026,-0.2059,1.2177,-0.3480,-0.3291
11013,-1.6855,-10.6829,-0.1006,1.1879,-0.3559,-0.3224
11021,-1.6424,-10.5896,-0.0575,1.1590,-0.3643,-0.3179
11028,-1.6640,-10.5010,-0.1221,1.1254,-0.3720,-0.3084
11036,-1.6472,-10.3166,-0.1724,1.0964,-0.3769,-0.3007
11044,-1.6161,-10.2448,-0.1317,1.0658,-0.3862,-0.2971
11053,-1.6448,-10.0892,-0.1580,1.0336,-0.3925,-0.2887
11061,-1.6041,-10.0676,-0.1508,1.0028,-0.3982,-0.2795
11069,-1.5634,-9.9503,-0.1724,0.9715,-0.4029,-0.2726
11076,-1.6424,-9.8521,-0.1987,0.9349,-0.4066,-0.2593
11084,-1.5706,-9.6582,-0.1173,0.9038,-0.4109,-0.2514
11092,-1.5299,-9.6678,-0.1820,0.8688,-0.4161,-0.2465
11101,-1.4796,-9.5217,-0.1508,0.8304,-0.4201,-0.2356
11109,-1.5514,-9.4260,-0.1867,0.7983,-0.4165,-0.2230
11116,-1.5610,-9.3781,-0.1532,0.7627,-0.4225,-0.2150
11124,-1.4796,-9.2201,-0.1413,0.7264,-0.4203,-0.2009
11132,-1.5419,-9.1339,-0.1484,0.6893,-0.4182,-0.1884
11141,-1.4437,-9.0668,-0.1796,0.6495,-0.4125,-0.1783
11149,-1.4389,-8.9902,-0.1891,0.6094,-0.4065,-0.1637
11157,-1.4150,-8.9256,-0.1748,0.5729,-0.4012,-0.1498
11164,-1.4389,-8.8202,-0.1508,0.5291,-0.3984,-0.1363
11172,-1.3575,-8.7532,-0.2634,0.4846,-0.3865,-0.1226
11181,-1.3982,-8.6694,-0.2274,0.4426,-0.3778,-0.1062
11189,-1.4389,-8.6862,-0.1820,0.3970,-0.3648,-0.0894
11197,-1.4246,-8.5545,-0.1748,0.3548,-0.3532,-0.0735
11204,-1.3958,-8.5281,-0.1317,0.3059,-0.3376,-0.0598
11212,-1.4509,-8.4970,-0.2634,0.2667,-0.3200,-0.0394
11220,-1.3743,-8.4611,-0.1772,0.2186,-0.3038,-0.0224
11229,-1.4198,-8.4707,-0.2634,0.1701,-0.2775,-0.0057
11237,-1.3982,-8.4779,-0.2682,0.1284,-0.2619,0.0131
11245,-1.3743,-8.4204,-0.2322,0.0826,-0.2381,0.0290
11252,-1.3599,-8.4108,-0.1939,0.0350,-0.2118,0.0485
11260,-1.3767,-8.4036,-0.1556,-0.0103,-0.1843,0.0641
11269,-1.3743,-8.4108,-0.1724,-0.0600,-0.1518,0.0785
11277,-1.4102,-8.3749,-0.2298,-0.1070,-0.1188,0.0985
11285,-1.4102,-8.4467,-0.2203,-0.1510,-0.0873,0.1151
11292,-1.3527,-8.4707,-0.1915,-0.1998,-0.0553,0.1348
11300,-1.3886,-8.4970,-0.1915,-0.2441,-0.0216,0.1523
11309,-1.4222,-8.4515,-0.2155,-0.2887,0.0163,0.1684
11317,-1.4533,-8.5281,-0.2011,-0.3356,0.0482,0.1868
11325,-1.3862,-8.5760,-0.1460,-0.3830,0.0846,0.2048
11333,-1.4006,-8.6886,-0.1508,-0.4283,0.1223,0.2185
11340,-1.4724,-8.7412,-0.1125,-0.4732,0.1541,0.2341
11348,-1.4676,-8.7867,-0.1460,-0.5196,0.1905,0.2509
11357,-1.4054,-8.8059,-0.1101,-0.5566,0.2208,0.2685
11365,-1.4150,-8.8777,-0.0934,-0.5974,0.2579,0.2830
11373,-1.4437,-8.9783,-0.1604,-0.6384,0.2924,0.2968
11380,-1.4246,-8.9759,-0.1413,-0.6752,0.3264,0.3104
11388,-1.4581,-9.0788,-0.0622,-0.7163,0.3627,0.3254
11397,-1.4006,-9.1243,-0.1101,-0.7466,0.4005,0.3328
11405,-1.4868,-9.2895,-0.0551,-0.7789,0.4369,0.3416
11413,-1.4940,-9.3733,-0.0838,-0.8135,0.4736,0.3539
11420,-1.5203,-9.4236,0.0000,-0.8462,0.5031,0.3611
11428,-1.5993,-9.5577,-0.0072,-0.8773,0.5341,0.3683
11437,-1.4964,-9.6462,-0.0144,-0.9078,0.5585,0.3766
11445,-1.6281,-9.8090,-0.0790,-0.9342,0.5866,0.3832
11453,-1.5778,-9.8545,-0.0048,-0.9657,0.6126,0.3921
11461,-1.6089,-10.0197,-0.0311,-0.9914,0.6419,0.4000
11468,-1.5945,-10.0652,-0.0024,-1.0160,0.6642,0.4062
11476,-1.6664,-10.1801,0.0239,-1.0401,0.6827,0.4128
11485,-1.6113,-10.2999,0.0670,-1.0661,0.6992,0.4163
11493,-1.5826,-10.4459,0.1006,-1.0918,0.7076,0.4237
11501,-1.6592,-10.4363,0.0168,-1.1170,0.7192,0.4281
11508,-1.6544,-10.6662,0.1197,-1.1367,0.7277,0.4313
11516,-1.7693,-10.7859,0.0718,-1.1610,0.7329,0.4329
11525,-1.7837,-10.8793,0.1149,-1.1810,0.7414,0.4354
11533,-1.7621,-10.9535,0.1149,-1.1992,0.7438,0.4337
11541,-1.7597,-11.0229,0.1724,-1.2220,0.7486,0.4370
11549,-1.8268,-11.1282,0.1006,-1.2466,0.7469,0.4349
11556,-1.7957,-11.1618,0.1317,-1.2673,0.7458,0.4411
11565,-1.8579,-11.2887,0.1724,-1.2824,0.7369,0.4375
11573,-1.8076,-11.4347,0.1341,-1.3065,0.7346,0.4387
11581,-1.8220,-11.5209,0.1987,-1.3235,0.7260,0.4375
11589,-1.8459,-11.5951,0.1700,-1.3490,0.7161,0.4377
11596,-1.8579,-11.6406,0.1796,-1.3691,0.7093,0.4327
11604,-1.9704,-11.7747,0.1341,-1.3939,0.6952,0.4306
11613,-1.8771,-11.8250,0.1077,-1.4197,0.6895,0.4282
11621,-1.8986,-11.8369,0.1437,-1.4468,0.6726,0.4253
11629,-1.8459,-11.9734,0.1796,-1.4682,0.6558,0.4223
11637,-1.9752,-12.0261,0.2442,-1.4947,0.6438,0.4211
11644,-1.9537,-12.0716,0.1532,-1.5163,0.6270,0.4185
11653,-1.8914,-12.1482,0.1915,-1.5382,0.6089,0.4175
11661,-1.9632,-12.2272,0.2203,-1.5559,0.5911,0.4137
11669,-1.9848,-12.2894,0.2107,-1.5760,0.5661,0.4137
11677,-1.9393,-12.3565,0.2825,-1.5938,0.5462,0.4110
11684,-1.9704,-12.3062,0.1341,-1.6124,0.5317,0.4073
11693,-1.9848,-12.4451,0.2825,-1.6252,0.5089,0.4037
11701,-1.9513,-12.4738,0.2107,-1.6403,0.4895,0.4009
11709,-2.0087,-12.5384,0.3424,-1.6537,0.4718,0.3985
11717,-1.9824,-12.5432,0.2370,-1.6673,0.4522,0.3969
11725,-1.9824,-12.4834,0.3017,-1.6766,0.4355,0.3964
11732,-1.9968,-12.5576,0.2825,-1.6834,0.4175,0.3925
11741,-1.9824,-12.5672,0.2251,-1.6900,0.3970,0.3928
11749,-2.0016,-12.5528,0.3041,-1.6926,0.3829,0.3914
11757,-1.9154,-12.5336,0.2921,-1.6938,0.3691,0.3897
11765,-2.0063,-12.5432,0.3184,-1.6994,0.3509,0.3889
11772,-1.9728,-12.5336,0.2658,-1.6931,0.3347,0.3872
11781,-2.0351,-12.5049,0.3208,-1.6867,0.3227,0.3906
11789,-1.9824,-12.4714,0.3855,-1.6834,0.3064,0.3869
11797,-1.9441,-12.4235,0.2969,-1.6758,0.2904,0.3885
11805,-1.9680,-12.4259,0.4022,-1.6641,0.2789,0.3870
11813,-2.0016,-12.3541,0.3400,-1.6527,0.2687,0.3857
11821,-1.9800,-12.3277,0.4286,-1.6433,0.2598,0.3878
11829,-1.8890,-12.2392,0.2418,-1.6252,0.2457,0.3865
11837,-1.9321,-12.2799,0.3663,-1.6129,0.2381,0.3814
11845,-1.8603,-12.1841,0.2466,-1.5964,0.2357,0.3824
11853,-1.8292,-12.0883,0.3519,-1.5809,0.2298,0.3817
11860,-1.8579,-11.9782,0.3711,-1.5617,0.2316,0.3784
11869,-1.8842,-11.8944,0.3448,-1.5408,0.2286,0.3748
11877,-1.8699,-11.8489,0.3448,-1.5216,0.2308,0.3726
11885,-1.7980,-11.7771,0.3232,-1.5003,0.2348,0.3714
11893,-1.8268,-11.6885,0.2634,-1.4845,0.2377,0.3633
11901,-1.7837,-11.5831,0.3041,-1.4609,0.2395,0.3591
11909,-1.7597,-11.5544,0.3017,-1.4396,0.2473,0.3527
11917,-1.7813,-11.4084,0.3089,-1.4186,0.2550,0.3463
11925,-1.7526,-11.3461,0.3184,-1.3953,0.2673,0.3405
11933,-1.7645,-11.2695,0.2682,-1.3792,0.2797,0.3305
11941,-1.6999,-11.1905,0.2107,-1.3503,0.2868,0.3236
11949,-1.6903,-11.0899,0.2873,-1.3311,0.2991,0.3178
11957,-1.6137,-11.0061,0.3615,-1.3062,0.3111,0.3102
11965,-1.6807,-10.8793,0.2179,-1.2842,0.3244,0.3015
11973,-1.6520,-10.7835,0.3304,-1.2585,0.3339,0.2932
11981,-1.6209,-10.6925,0.2969,-1.2304,0.3473,0.2864
11988,-1.5897,-10.6015,0.2586,-1.2031,0.3592,0.2759
11997,-1.6209,-10.4866,0.2107,-1.1724,0.3706,0.2639
12005,-1.6185,-10.4698,0.2969,-1.1447,0.3830,0.2546
12013,-1.5850,-10.3525,0.2682,-1.1171,0.3976,0.2479
12021,-1.5155,-10.2328,0.2322,-1.0854,0.4098,0.2377
12029,-1.5419,-10.1538,0.2825,-1.0544,0.4159,0.2284
12037,-1.5371,-10.0676,0.1915,-1.0219,0.4313,0.2165
12045,-1.5395,-9.9359,0.1891,-0.9868,0.4365,0.2072
12053,-1.4700,-9.8450,0.1748,-0.9526,0.4406,0.2012
12061,-1.4748,-9.7133,0.3376,-0.9142,0.4498,0.1889
12069,-1.4485,-9.6271,0.1820,-0.8787,0.4565,0.1835
12077,-1.4676,-9.5337,0.2729,-0.8394,0.4598,0.1728
12085,-1.4006,-9.4475,0.2873,-0.7993,0.4642,0.1643
12093,-1.4222,-9.3637,0.2969,-0.7589,0.4684,0.1565
12101,-1.3910,-9.3134,0.3017,-0.7156,0.4675,0.1467
12109,-1.4293,-9.2416,0.2801,-0.6706,0.4642,0.1350
12118,-1.3815,-9.1219,0.2490,-0.6231,0.4650,0.1248
12125,-1.3623,-9.0644,0.3160,-0.5805,0.4631,0.1184
12133,-1.3647,-8.9998,0.3256,-0.5329,0.4576,0.1114
12141,-1.3503,-8.9447,0.3615,-0.4855,0.4522,0.1011
12149,-1.3216,-8.8801,0.4166,-0.4327,0.4453,0.0923
12157,-1.3264,-8.9208,0.3543,-0.3869,0.4353,0.0861
12165,-1.3719,-8.7412,0.3424,-0.3343,0.4263,0.0790
12173,-1.2689,-8.8083,0.3639,-0.2846,0.4085,0.0654
12181,-1.3001,-8.7317,0.2945,-0.2338,0.3913,0.0578
12189,-1.2546,-8.6933,0.4094,-0.1773,0.3721,0.0497
12197,-1.3431,-8.7340,0.3496,-0.1243,0.3527,0.0420
12206,-1.2857,-8.7029,0.3304,-0.0717,0.3289,0.0312
12213,-1.3336,-8.6311,0.3424,-0.0193,0.3068,0.0229
12221,-1.3168,-8.7125,0.3448,0.0345,0.2797,0.0141
12229,-1.2570,-8.7245,0.3304,0.0875,0.2541,0.0103
12237,-1.3120,-8.7221,0.3687,0.1410,0.2298,-0.0029
12246,-1.2761,-8.6574,0.3783,0.1903,0.1964,-0.0111
12253,-1.2953,-8.7364,0.3232,0.2437,0.1656,-0.0201
12261,-1.3192,-8.7532,0.3591,0.2935,0.1292,-0.0248
12269,-1.3408,-8.7508,0.2897,0.3441,0.0923,-0.0350
12277,-1.3144,-8.7843,0.2610,0.3962,0.0557,-0.0398
12285,-1.3120,-8.8202,0.2705,0.4451,0.0187,-0.0497
12294,-1.3216,-8.8801,0.3089,0.4912,-0.0212,-0.0556
12301,-1.3647,-8.9280,0.2753,0.5368,-0.0534,-0.0625
12309,-1.3958,-8.9998,0.2610,0.5846,-0.0926,-0.0715
12317,-1.3551,-9.0190,0.2346,0.6307,-0.1338,-0.0739
12325,-1.3910,-9.0788,0.2610,0.6714,-0.1717,-0.0829
12334,-1.3838,-9.1554,0.2825,0.7143,-0.2096,-0.0894
12341,-1.4246,-9.1985,0.2849,0.7548,-0.2471,-0.0970
12349,-1.4605,-9.3063,0.1652,0.7914,-0.2854,-0.1030
12357,-1.3168,-9.3805,0.1891,0.8298,-0.3194,-0.1148
12365,-1.4820,-9.4571,0.2131,0.8627,-0.3532,-0.1211
12374,-1.4748,-9.6295,0.1891,0.8993,-0.3842,-0.1295
12382,-1.5131,-9.6606,0.2203,0.9317,-0.4183,-0.1366
12389,-1.4916,-9.7947,0.1269,0.9631,-0.4507,-0.1467
12397,-1.4988,-9.8402,0.1580,0.9962,-0.4800,-0.1527
12405,-1.5395,-9.9072,0.1245,1.0253,-0.5087,-0.1579
12413,-1.6209,-9.9862,0.1580,1.0557,-0.5315,-0.1636
12422,-1.5203,-10.1347,0.1101,1.0884,-0.5628,-0.1692
12429,-1.6233,-10.2424,0.1413,1.1194,-0.5910,-0.1753
12437,-1.6951,-10.3166,0.0958,1.1441,-0.6113,-0.1800
12445,-1.6664,-10.4651,0.0455,1.1707,-0.6323,-0.1860
12453,-1.6017,-10.5058,0.1149,1.1923,-0.6496,-0.1928
12462,-1.7047,-10.6063,0.0215,1.2136,-0.6692,-0.1968
12470,-1.6927,-10.7595,0.1317,1.2333,-0.6800,-0.2056
12477,-1.6951,-10.7835,0.0239,1.2526,-0.6984,-0.2093
12485,-1.6640,-10.8697,0.0096,1.2684,-0.7016,-0.2181
12493,-1.7382,-11.0109,-0.0048,1.2849,-0.7113,-0.2262
12502,-1.7454,-11.0325,0.0359,1.3007,-0.7190,-0.2312
12510,-1.7454,-11.1306,0.0599,1.3143,-0.7200,-0.2388
12517,-1.6903,-11.2623,0.0000,1.3243,-0.7206,-0.2483
12525,-1.7214,-11.3389,0.0144,1.3392,-0.7281,-0.2562
12533,-1.7669,-11.3868,-0.0096,1.3502,-0.7257,-0.2647
12541,-1.7693,-11.4898,-0.0479,1.3619,-0.7254,-0.2711
12550,-1.8340,-11.5377,-0.0886,1.3753,-0.7234,-0.2795
12557,-1.7837,-11.6238,0.0215,1.3855,-0.7234,-0.2896
12565,-1.8028,-11.6430,-0.1460,1.3999,-0.7125,-0.2983
12573,-1.8603,-11.7100,-0.0670,1.4101,-0.7087,-0.3082
12581,-1.8220,-11.7699,-0.0096,1.4218,-0.6981,-0.3192
12590,-1.8076,-11.8561,-0.1077,1.4365,-0.6933,-0.3287
12598,-1.8220,-11.9040,0.0527,1.4505,-0.6849,-0.3381
12605,-1.8411,-11.8896,-0.0694,1.4590,-0.6724,-0.3464
12613,-1.8986,-11.9949,0.0144,1.4750,-0.6615,-0.3569
12621,-1.9058,-12.0285,-0.0024,1.4838,-0.6479,-0.3696
12630,-1.9273,-12.0907,-0.0072,1.4946,-0.6332,-0.3757
12638,-1.8842,-12.0787,0.0239,1.5035,-0.6233,-0.3816
12645,-1.9034,-12.1482,0.0024,1.5106,-0.6097,-0.3902
12653,-1.9585,-12.2032,-0.1173,1.5196,-0.5889,-0.3978
12661,-1.9082,-12.1961,0.0072,1.5240,-0.5752,-0.4044
12669,-1.9848,-12.2009,-0.1125,1.5323,-0.5649,-0.4113
12678,-1.9249,-12.2535,-0.0527,1.5348,-0.5512,-0.4117
12686,-1.9201,-12.2511,-0.1173,1.5382,-0.5325,-0.4124
12693,-1.9417,-12.2703,-0.0335,1.5465,-0.5183,-0.4150
12701,-2.0279,-12.2296,-0.1389,1.5467,-0.5073,-0.4187
12709,-1.9369,-12.2416,-0.0958,1.5484,-0.4896,-0.4187
12718,-1.9537,-12.1985,-0.0120,1.5451,-0.4760,-0.4157
12726,-1.9632,-12.1889,-0.2298,1.5438,-0.4628,-0.4161
12733,-1.9704,-12.1841,-0.0263,1.5354,-0.4526,-0.4153
12741,-1.9393,-12.1051,-0.1245,1.5356,-0.4406,-0.4106
12749,-1.8866,-12.0979,-0.1341,1.5234,-0.4330,-0.4096
12758,-1.9082,-12.0380,-0.1844,1.5132,-0.4199,-0.4018
12766,-1.9297,-12.0620,-0.0407,1.5071,-0.4120,-0.4017
12774,-1.9154,-12.0835,-0.1389,1.4931,-0.3945,-0.3960
12781,-1.9321,-11.9303,-0.1413,1.4835,-0.3821,-0.3926
12789,-1.9130,-11.8728,-0.1293,1.4667,-0.3740,-0.3897
12797,-1.9178,-11.8417,-0.1796,1.4508,-0.3649,-0.3848
12806,-1.9201,-11.7388,-0.0742,1.4338,-0.3604,-0.3768
12814,-1.8962,-11.6957,-0.0742,1.4176,-0.3496,-0.3687
12821,-1.9034,-11.6574,-0.1676,1.3924,-0.3465,-0.3647
12829,-1.8866,-11.5664,-0.0694,1.3744,-0.3377,-0.3563
12837,-1.8435,-11.4922,-0.1604,1.3518,-0.3327,-0.3503
12846,-1.7262,-11.4515,-0.1508,1.3342,-0.3283,-0.3465
12854,-1.8172,-11.3820,-0.1365,1.3127,-0.3234,-0.3393
12862,-1.8052,-11.2599,-0.1101,1.2918,-0.3220,-0.3363
12869,-1.7645,-11.1905,-0.1652,1.2742,-0.3179,-0.3319
12877,-1.7478,-11.0636,-0.1341,1.2472,-0.3167,-0.3275
12886,-1.7957,-11.0181,-0.1796,1.2228,-0.3130,-0.3275
12894,-1.7502,-10.9870,-0.1748,1.1980,-0.3135,-0.3224
12902,-1.7358,-10.8338,-0.1197,1.1767,-0.3138,-0.3163
12909,-1.6999,-10.7141,-0.0311,1.1486,-0.3102,-0.3107
12917,-1.7358,-10.6757,-0.2155,1.1234,-0.3116,-0.3046
12925,-1.6783,-10.5800,-0.2059,1.0970,-0.3191,-0.3016
12934,-1.6975,-10.4794,-0.0910,1.0704,-0.3180,-0.2958
12942,-1.7047,-10.4172,-0.0934,1.0471,-0.3195,-0.2923
12950,-1.6712,-10.3549,-0.0479,1.0176,-0.3220,-0.2846
12957,-1.6113,-10.2663,-0.0886,0.9895,-0.3250,-0.2782
12965,-1.6472,-10.2089,-0.1006,0.9590,-0.3293,-0.2687
12974,-1.6328,-10.0916,-0.0886,0.9286,-0.3332,-0.2653
12982,-1.5778,-9.9886,-0.1221,0.8997,-0.3272,-0.2579
12990,-1.5850,-9.8617,-0.1604,0.8696,-0.3317,-0.2477
12997,-1.5730,-9.8138,-0.0910,0.8370,-0.3304,-0.2370
13005,-1.6089,-9.7588,-0.0694,0.8099,-0.3319,-0.2256
13014,-1.5083,-9.6558,-0.1724,0.7809,-0.3327,-0.2185
13022,-1.5706,-9.5648,-0.1030,0.7450,-0.3291,-0.2114
13030,-1.4940,-9.5050,-0.1676,0.7131,-0.3296,-0.1992
13038,-1.5083,-9.4499,-0.1437,0.6811,-0.3320,-0.1892
13045,-1.5155,-9.3661,-0.1053,0.6470,-0.3283,-0.1776
13053,-1.4988,-9.3254,-0.1987,0.6134,-0.3231,-0.1647
13062,-1.5036,-9.1650,-0.2083,0.5769,-0.3202,-0.1544
13070,-1.4748,-9.1315,-0.1987,0.5420,-0.3142,-0.1436
13078,-1.5179,-9.0860,-0.1269,0.5076,-0.3084,-0.1296
13085,-1.4676,-9.0022,-0.1221,0.4686,-0.3031,-0.1170
13093,-1.5060,-9.0094,-0.2274,0.4302,-0.2954,-0.1014
13102,-1.4964,-8.9208,-0.1460,0.3902,-0.2894,-0.0858
13110,-1.4102,-8.8801,-0.1987,0.3547,-0.2767,-0.0731
13118,-1.4246,-8.8801,-0.1006,0.3164,-0.2690,-0.0538
13125,-1.4461,-8.7795,-0.1604,0.2807,-0.2557,-0.0437
13133,-1.4461,-8.7604,-0.1867,0.2394,-0.2402,-0.0273
13142,-1.3886,-8.8250,-0.1700,0.1976,-0.2242,-0.0151
13150,-1.4461,-8.7221,-0.2227,0.1580,-0.2072,0.0024
13158,-1.4389,-8.7771,-0.1197,0.1134,-0.1936,0.0165
13166,-1.4293,-8.7388,-0.2203,0.0735,-0.1737,0.0336
13173,-1.4365,-8.6957,-0.2059,0.0312,-0.1551,0.0461
13181,-1.4437,-8.7149,-0.1628,-0.0065,-0.1344,0.0621
13190,-1.4365,-8.7077,-0.1125,-0.0501,-0.1124,0.0761
13198,-1.4269,-8.7149,-0.1652,-0.0898,-0.0883,0.0937
13206,-1.4150,-8.7364,-0.1987,-0.1314,-0.0685,0.1086
13213,-1.4653,-8.7317,-0.3065,-0.1707,-0.0429,0.1248
13221,-1.4174,-8.7077,-0.2083,-0.2090,-0.0216,0.1396
13230,-1.4533,-8.7604,-0.1365,-0.2493,0.0076,0.1543
13238,-1.4533,-8.8705,-0.2370,-0.2884,0.0346,0.1688
13246,-1.3934,-8.8514,-0.1484,-0.3296,0.0674,0.1847
13254,-1.5012,-8.8585,-0.0527,-0.3695,0.0949,0.1984
13261,-1.4700,-8.9471,-0.1844,-0.4081,0.1206,0.2114
13270,-1.4365,-8.9495,-0.0694,-0.4457,0.1549,0.2264
13278,-1.4389,-9.0142,-0.0527,-0.4782,0.1847,0.2385
13286,-1.4509,-9.0501,-0.0599,-0.5131,0.2176,0.2498
13294,-1.5060,-9.1291,-0.1460,-0.5458,0.2414,0.2659
13301,-1.5107,-9.1554,-0.1413,-0.5809,0.2723,0.2734
13309,-1.4844,-9.2536,-0.1365,-0.6175,0.3014,0.2866
13318,-1.4413,-9.3302,-0.0718,-0.6547,0.3341,0.2922
13326,-1.4940,-9.4619,-0.0790,-0.6872,0.3609,0.3020
13334,-1.5371,-9.4954,-0.1317,-0.7185,0.3885,0.3116
13342,-1.4605,-9.5529,-0.0024,-0.7454,0.4121,0.3182
13349,-1.5395,-9.6103,-0.0192,-0.7786,0.4387,0.3296
13358,-1.5251,-9.7013,-0.0670,-0.8017,0.4612,0.3367
13366,-1.5443,-9.7707,-0.0096,-0.8264,0.4798,0.3427
13374,-1.5682,-9.8761,-0.0311,-0.8539,0.5031,0.3523
13382,-1.5562,-9.9934,0.0383,-0.8739,0.5217,0.3576
13389,-1.6568,-10.0341,0.0168,-0.8985,0.5428,0.3643
13398,-1.6281,-10.1490,-0.0455,-0.9245,0.5626,0.3697
13406,-1.5778,-10.2161,0.0407,-0.9518,0.5788,0.3753
13414,-1.6089,-10.2951,0.0192,-0.9703,0.5889,0.3793
13422,-1.6113,-10.4435,0.0934,-0.9942,0.6003,0.3812
13430,-1.6759,-10.4770,0.0239,-1.0143,0.6026,0.3869
13437,-1.6975,-10.5656,0.0838,-1.0351,0.6143,0.3933
13446,-1.6831,-10.5728,0.0742,-1.0565,0.6223,0.3985
13454,-1.6975,-10.6686,0.1508,-1.0766,0.6269,0.3981
13462,-1.6927,-10.6853,0.0934,-1.1004,0.6279,0.4021
13470,-1.7023,-10.8481,0.0407,-1.1170,0.6310,0.4058
13477,-1.7190,-10.9152,0.1796,-1.1355,0.6370,0.4066
13486,-1.6472,-11.0181,0.1628,-1.1563,0.6344,0.4058
13494,-1.7478,-11.0708,0.1413,-1.1740,0.6306,0.4078
13502,-1.7885,-11.1498,0.0359,-1.1943,0.6295,0.4110
13510,-1.8244,-11.2863,0.1269,-1.2120,0.6253,0.4093
13518,-1.7813,-11.2791,0.1125,-1.2336,0.6211,0.4082
13526,-1.8052,-11.3581,0.2011,-1.2546,0.6121,0.4118
13534,-1.8100,-11.3964,0.1053,-1.2746,0.6046,0.4086
13542,-1.8196,-11.4347,0.1460,-1.2911,0.5941,0.4068
13550,-1.8124,-11.5712,0.2538,-1.3119,0.5882,0.4050
13558,-1.8387,-11.5736,0.1437,-1.3280,0.5774,0.4062
13565,-1.8268,-11.6885,0.1748,-1.3452,0.5633,0.4056
13574,-1.8340,-11.6717,0.1700,-1.3628,0.5537,0.4001
13582,-1.8651,-11.7268,0.1437,-1.3777,0.5416,0.3993
13590,-1.8818,-11.7962,0.1604,-1.3936,0.5217,0.3960
13598,-1.8675,-11.7675,0.1748,-1.4119,0.5076,0.3949
13605,-1.8651,-11.8537,0.2131,-1.4266,0.4942,0.3904
13614,-1.8699,-11.8752,0.2059,-1.4384,0.4830,0.3882
13622,-1.8100,-11.9207,0.2801,-1.4485,0.4707,0.3833
13630,-1.9537,-11.9638,0.2035,-1.4617,0.4563,0.3837
13638,-1.8627,-11.9662,0.1700,-1.4729,0.4386,0.3794
13646,-1.8340,-12.0333,0.3687,-1.4771,0.4253,0.3788
13654,-1.8986,-12.0045,0.2346,-1.4865,0.4076,0.3760
13662,-1.8938,-12.0069,0.2562,-1.4886,0.3874,0.3748
13670,-1.8747,-12.0045,0.2729,-1.4897,0.3744,0.3749
13678,-1.8794,-11.9854,0.2753,-1.4909,0.3635,0.3683
13686,-1.8268,-11.9758,0.2227,-1.4911,0.3525,0.3679
13693,-1.9010,-11.9854,0.2203,-1.4905,0.3409,0.3655
13702,-1.8651,-11.9662,0.2610,-1.4877,0.3324,0.3621
13710,-1.9034,-11.8848,0.2729,-1.4835,0.3207,0.3605
13718,-1.9010,-11.8824,0.3112,-1.4805,0.3059,0.3615
13726,-1.8340,-11.8776,0.2394,-1.4702,0.2946,0.3583
13734,-1.8818,-11.8393,0.2729,-1.4617,0.2821,0.3595
13742,-1.7980,-11.8034,0.2370,-1.4526,0.2761,0.3572
13750,-1.7621,-11.6981,0.2131,-1.4384,0.2706,0.3568
13758,-1.8028,-11.6981,0.2514,-1.4280,0.2701,0.3553
13766,-1.8268,-11.6741,0.3376,-1.4123,0.2666,0.3504
13774,-1.8220,-11.5616,0.2969,-1.3961,0.2599,0.3497
13782,-1.7765,-11.5544,0.2873,-1.3819,0.2526,0.3463
13790,-1.7789,-11.5329,0.2442,-1.3687,0.2498,0.3457
13798,-1.8316,-11.3629,0.3256,-1.3495,0.2495,0.3389
13806,-1.7549,-11.3461,0.3017,-1.3332,0.2511,0.3389
13814,-1.7573,-11.2719,0.3519,-1.3142,0.2582,0.3321
13822,-1.7669,-11.2384,0.2322,-1.2966,0.2659,0.3277
13830,-1.7789,-11.1594,0.3615,-1.2712,0.2697,0.3227
13838,-1.7071,-11.1187,0.2825,-1.2538,0.2705,0.3163
13846,-1.6712,-10.9966,0.2370,-1.2349,0.2754,0.3100
13854,-1.6879,-10.9487,0.2634,-1.2151,0.2765,0.3058
13862,-1.6688,-10.8409,0.2682,-1.1952,0.2769,0.2984
13870,-1.6233,-10.8242,0.3089,-1.1724,0.2770,0.2894
13878,-1.6759,-10.7978,0.2298,-1.1499,0.2823,0.2851
13886,-1.5754,-10.6734,0.2873,-1.1262,0.2882,0.2757
13894,-1.6209,-10.5536,0.2059,-1.1040,0.2916,0.2674
13902,-1.5945,-10.5034,0.2011,-1.0816,0.3028,0.2595
13911,-1.6257,-10.4004,0.2466,-1.0557,0.3050,0.2502
13918,-1.5562,-10.3573,0.2107,-1.0291,0.3114,0.2389
13926,-1.5874,-10.3046,0.3424,-1.0047,0.3158,0.2336
13934,-1.5107,-10.2089,0.1867,-0.9749,0.3235,0.2234
13942,-1.5299,-10.1083,0.1915,-0.9486,0.3238,0.2157
13950,-1.4796,-10.0102,0.2562,-0.9180,0.3250,0.2070
13958,-1.5179,-9.9479,0.3017,-0.8876,0.3304,0.1956
13966,-1.5347,-9.8330,0.3089,-0.8568,0.3331,0.1852
13974,-1.4844,-9.7923,0.1891,-0.8246,0.3396,0.1789
13982,-1.4533,-9.7013,0.1604,-0.7923,0.3373,0.1720
13990,-1.4844,-9.6414,0.3208,-0.7578,0.3397,0.1641
13999,-1.4844,-9.5888,0.2490,-0.7228,0.3377,0.1539
14006,-1.4222,-9.5696,0.1532,-0.6827,0.3388,0.1488
14014,-1.4581,-9.4571,0.2466,-0.6494,0.3403,0.1379
14022,-1.3838,-9.4308,0.2274,-0.6115,0.3359,0.1292
14030,-1.4102,-9.3661,0.3591,-0.5688,0.3315,0.1244
14039,-1.4437,-9.2991,0.3304,-0.5321,0.3317,0.1131
14046,-1.3431,-9.2464,0.3112,-0.4932,0.3288,0.1070
14054,-1.4054,-9.1698,0.3112,-0.4474,0.3226,0.0977
14062,-1.3791,-9.1171,0.3639,-0.4049,0.3171,0.0919
14070,-1.3910,-9.1411,0.3280,-0.3643,0.3091,0.0817
14078,-1.3479,-9.0836,0.2682,-0.3192,0.3014,0.0731
14087,-1.3695,-8.9807,0.2993,-0.2741,0.2919,0.0649
14094,-1.3695,-8.9902,0.3065,-0.2282,0.2825,0.0572
14102,-1.4030,-9.0836,0.3160,-0.1852,0.2683,0.0504
14110,-1.3192,-8.9926,0.2658,-0.1378,0.2569,0.0404
14118,-1.3360,-8.9902,0.3855,-0.0958,0.2390,0.0354
14127,-1.3910,-8.9376,0.3112,-0.0454,0.2208,0.0246
14134,-1.3216,-8.9567,0.2466,-0.0013,0.2049,0.0201
14142,-1.3862,-8.9328,0.2442,0.0401,0.1860,0.0120
14150,-1.3623,-8.9495,0.2538,0.0882,0.1652,0.0033
14158,-1.3048,-8.8825,0.2897,0.1368,0.1435,-0.0079
14167,-1.3862,-8.9711,0.2418,0.1797,0.1199,-0.0152
14175,-1.3168,-8.9447,0.1915,0.2233,0.0947,-0.0180
14182,-1.2713,-9.0118,0.1987,0.2694,0.0690,-0.0284
14190,-1.3767,-9.0525,0.2729,0.3070,0.0416,-0.0357
14198,-1.3384,-9.0740,0.2705,0.3500,0.0112,-0.0438
14206,-1.4174,-9.1171,0.3089,0.3948,-0.0156,-0.0536
14215,-1.3623,-9.1267,0.3232,0.4331,-0.0452,-0.0582
14222,-1.3647,-9.1267,0.2346,0.4750,-0.0714,-0.0678
14230,-1.4461,-9.1411,0.2251,0.5115,-0.1014,-0.0754
14238,-1.4533,-9.1770,0.2322,0.5533,-0.1322,-0.0789
14246,-1.3886,-9.2560,0.2059,0.5890,-0.1565,-0.0885
14255,-1.4676,-9.3350,0.2059,0.6263,-0.1840,-0.0942
14262,-1.4269,-9.3877,0.2466,0.6596,-0.2134,-0.1025
14270,-1.4892,-9.4499,0.2610,0.6943,-0.2442,-0.1127
14278,-1.4150,-9.4475,0.2251,0.7329,-0.2711,-0.1208
14286,-1.4269,-9.5720,0.0982,0.7645,-0.2952,-0.1286
14295,-1.4605,-9.6343,0.1341,0.7979,-0.3226,-0.1347
14303,-1.4892,-9.7348,0.2011,0.8256,-0.3445,-0.1438
14310,-1.4940,-9.7755,0.1197,0.8623,-0.3663,-0.1496
14318,-1.4676,-9.8761,0.1844,0.8938,-0.3925,-0.1600
14326,-1.5634,-9.9527,0.2298,0.9202,-0.4128,-0.1641
14334,-1.5682,-10.0796,0.1460,0.9487,-0.4337,-0.1699
14343,-1.5538,-10.1251,0.1676,0.9783,-0.4598,-0.1756
14350,-1.5467,-10.1993,0.0958,1.0055,-0.4704,-0.1788
14358,-1.5754,-10.2831,0.1077,1.0279,-0.4831,-0.1871
14366,-1.6424,-10.3334,0.0503,1.0508,-0.5007,-0.1945
14374,-1.6568,-10.4076,0.1077,1.0717,-0.5147,-0.1968
14383,-1.6352,-10.4531,0.0335,1.0948,-0.5281,-0.2066
14391,-1.6688,-10.5943,0.0527,1.1105,-0.5393,-0.2129
14398,-1.6855,-10.6279,0.0982,1.1237,-0.5502,-0.2176
14406,-1.6855,-10.6590,0.0646,1.1411,-0.5626,-0.2242
14414,-1.6544,-10.7835,0.0096,1.1532,-0.5690,-0.2284
14423,-1.6879,-10.8386,-0.0120,1.1675,-0.5792,-0.2362
14431,-1.7669,-10.8793,0.0790,1.1831,-0.5826,-0.2390
14438,-1.6975,-10.9415,0.0263,1.1965,-0.5861,-0.2458
14446,-1.7286,-11.0492,0.0072,1.2083,-0.5918,-0.2522
14454,-1.7693,-11.1498,0.0479,1.2181,-0.5925,-0.2582
14462,-1.7095,-11.0756,0.0455,1.2307,-0.5947,-0.2629
14471,-1.7334,-11.1498,-0.0479,1.2445,-0.5978,-0.2674
14479,-1.7789,-11.2527,-0.0048,1.2524,-0.5950,-0.2753
14486,-1.8364,-11.3365,0.0239,1.2622,-0.5962,-0.2802
14494,-1.8100,-11.3653,0.0503,1.2710,-0.5933,-0.2879
14502,-1.7933,-11.4491,0.0287,1.2832,-0.5897,-0.2967
14511,-1.7813,-11.4419,0.0000,1.2923,-0.5850,-0.3020
14519,-1.7717,-11.4850,0.0311,1.3019,-0.5816,-0.3106
14526,-1.8411,-11.5424,-0.0239,1.3122,-0.5745,-0.3208
14534,-1.8268,-11.6358,0.0120,1.3182,-0.5680,-0.3268
14542,-1.8411,-11.6454,-0.0622,1.3193,-0.5638,-0.3332
14551,-1.8387,-11.6454,-0.0455,1.3294,-0.5516,-0.3375
14559,-1.7957,-11.6598,-0.0335,1.3327,-0.5469,-0.3419
14567,-1.8411,-11.6478,-0.0072,1.3414,-0.5415,-0.3495
14574,-1.8244,-11.6861,-0.0790,1.3455,-0.5335,-0.3559
14582,-1.8699,-11.7412,-0.0479,1.3518,-0.5244,-0.3633
14590,-1.8387,-11.7172,-0.0479,1.3552,-0.5160,-0.3640
14599,-1.8651,-11.7316,-0.1317,1.3627,-0.5052,-0.3637
14607,-1.8531,-11.7220,-0.0215,1.3667,-0.4978,-0.3704
14614,-1.8052,-11.7795,-0.0790,1.3675,-0.4915,-0.3689
14622,-1.8675,-11.7005,0.0527,1.3694,-0.4780,-0.3716
14630,-1.8962,-11.7436,-0.0120,1.3670,-0.4712,-0.3717
14639,-1.8866,-11.7220,-0.0263,1.3716,-0.4623,-0.3706
14647,-1.8244,-11.6837,-0.1437,1.3686,-0.4502,-0.3697
14655,-1.9178,-11.6909,-0.0455,1.3620,-0.4459,-0.3710
14662,-1.8244,-11.6550,-0.1389,1.3566,-0.4327,-0.3691
14670,-1.8196,-11.6622,-0.0551,1.3500,-0.4258,-0.3671
14679,-1.7909,-11.6119,-0.0072,1.3402,-0.4167,-0.3695
14687,-1.8627,-11.5592,-0.0814,1.3328,-0.4000,-0.3636
14695,-1.9034,-11.4922,-0.0694,1.3197,-0.3968,-0.3612
14702,-1.7406,-11.4874,-0.0694,1.3095,-0.3842,-0.3597
14710,-1.7837,-11.3820,-0.1077,1.2983,-0.3754,-0.3567
14718,-1.8028,-11.3222,-0.0766,1.2855,-0.3667,-0.3487
14727,-1.8699,-11.3725,-0.1437,1.2669,-0.3623,-0.3449
14735,-1.7837,-11.2504,-0.1317,1.2496,-0.3525,-0.3371
14743,-1.8004,-11.1857,-0.0599,1.2352,-0.3451,-0.3327
14750,-1.7933,-11.2408,-0.1915,1.2136,-0.3367,-0.3295
14758,-1.8387,-11.0828,-0.1245,1.1979,-0.3309,-0.3219
14767,-1.7262,-11.0636,-0.1006,1.1787,-0.3267,-0.3155
14775,-1.7238,-11.0109,-0.1293,1.1599,-0.3223,-0.3104
14783,-1.7621,-10.9056,-0.1389,1.1399,-0.3152,-0.3046
14790,-1.6712,-10.9152,-0.1508,1.1183,-0.3110,-0.3006
14798,-1.7741,-10.7571,-0.1389,1.1022,-0.3083,-0.2980
14807,-1.7214,-10.7093,-0.0982,1.0781,-0.3036,-0.2926
14815,-1.6999,-10.5752,0.0096,1.0567,-0.2970,-0.2896
14823,-1.7119,-10.5919,-0.1125,1.0345,-0.2942,-0.2836
14831,-1.7142,-10.5082,-0.1484,1.0067,-0.2935,-0.2821
14838,-1.6927,-10.4770,-0.0168,0.9892,-0.2907,-0.2743
14846,-1.6400,-10.3765,-0.1532,0.9666,-0.2878,-0.2686
14855,-1.6089,-10.3358,-0.0335,0.9373,-0.2863,-0.2666
14863,-1.6903,-10.2544,-0.1652,0.9154,-0.2846,-0.2607
14871,-1.6281,-10.1610,-0.1844,0.8889,-0.2856,-0.2503
14878,-1.5945,-10.1394,-0.0024,0.8643,-0.2823,-0.2443
14886,-1.6424,-10.0365,-0.0383,0.8346,-0.2809,-0.2361
14895,-1.6041,-9.9168,-0.0958,0.8127,-0.2759,-0.2289
14903,-1.5945,-9.8665,-0.1508,0.7839,-0.2778,-0.2196
14911,-1.6089,-9.7588,-0.0599,0.7557,-0.2722,-0.2110
14919,-1.5275,-9.7109,-0.0838,0.7284,-0.2721,-0.2040
14926,-1.5778,-9.7061,-0.1245,0.7009,-0.2723,-0.1931
14935,-1.5921,-9.6510,-0.0383,0.6760,-0.2667,-0.1853
14943,-1.5730,-9.5888,-0.1652,0.6456,-0.2625,-0.1773
14951,-1.5299,-9.5385,-0.0814,0.6139,-0.2602,-0.1653
14959,-1.5275,-9.4691,-0.1317,0.5862,-0.2609,-0.1597
14966,-1.5060,-9.3853,-0.1006,0.5532,-0.2522,-0.1471
14974,-1.5634,-9.3565,-0.1389,0.5221,-0.2525,-0.1368
14983,-1.5155,-9.2775,-0.1460,0.4895,-0.2449,-0.1250
14991,-1.5107,-9.2392,-0.1460,0.4565,-0.2392,-0.1148
14999,-1.5083,-9.2225,-0.1796,0.4219,-0.2337,-0.1030
15006,-1.4988,-9.0956,-0.1532,0.3905,-0.2252,-0.0890
15014,-1.4629,-9.1099,-0.1365,0.3581,-0.2173,-0.0749
15023,-1.5275,-9.0956,-0.1006,0.3269,-0.2116,-0.0613
15031,-1.4964,-9.0644,-0.1030,0.2878,-0.1997,-0.0509
15039,-1.4293,-8.9830,-0.1796,0.2569,-0.1903,-0.0362
15047,-1.4317,-8.9591,-0.1389,0.2201,-0.1753,-0.0203
15054,-1.4916,-9.0022,-0.1484,0.1836,-0.1633,-0.0093
15063,-1.4605,-9.0022,-0.1628,0.1462,-0.1463,0.0061
15071,-1.4557,-8.9352,-0.0958,0.1096,-0.1350,0.0167
15079,-1.4940,-8.9208,-0.1652,0.0750,-0.1216,0.0341
15087,-1.4222,-8.9854,-0.0527,0.0388,-0.1045,0.0466
15094,-1.4126,-8.9399,-0.0790,0.0000,-0.0886,0.0630
15102,-1.4509,-8.8921,-0.1389,-0.0341,-0.0670,0.0730
15111,-1.4676,-8.9304,-0.2011,-0.0669,-0.0456,0.0901
15119,-1.4868,-8.9423,-0.1700,-0.1070,-0.0254,0.0982
15127,-1.4413,-8.9471,-0.1053,-0.1419,-0.0119,0.1151
15135,-1.4724,-8.9543,-0.1676,-0.1784,0.0089,0.1271
15142,-1.4581,-8.9352,-0.0838,-0.2141,0.0250,0.1407
15151,-1.5395,-9.0285,-0.1460,-0.2493,0.0469,0.1510
15159,-1.5012,-8.9759,-0.1269,-0.2858,0.0706,0.1680
15167,-1.4940,-9.0644,-0.1460,-0.3212,0.0953,0.1769
15175,-1.5012,-9.0573,-0.1197,-0.3519,0.1159,0.1917
15182,-1.4916,-9.0860,-0.0359,-0.3825,0.1406,0.2026
15191,-1.4892,-9.1937,-0.0934,-0.4175,0.1645,0.2153
15199,-1.4892,-9.2416,-0.0886,-0.4473,0.1872,0.2270
15207,-1.4676,-9.2967,-0.0814,-0.4819,0.2109,0.2334
15215,-1.5012,-9.3206,-0.0431,-0.5117,0.2338,0.2454
15223,-1.4581,-9.4020,-0.0311,-0.5448,0.2611,0.2533
15230,-1.5467,-9.3948,-0.1484,-0.5773,0.2818,0.2627
15239,-1.5083,-9.4691,-0.0407,-0.6030,0.3042,0.2713
15247,-1.4820,-9.5002,-0.0383,-0.6347,0.3236,0.2785
15255,-1.5634,-9.5600,-0.0048,-0.6596,0.3437,0.2866
15263,-1.5586,-9.6462,-0.0383,-0.6843,0.3611,0.2950
15270,-1.5467,-9.7229,-0.0168,-0.7111,0.3792,0.3038
15279,-1.5490,-9.8043,0.0215,-0.7349,0.4013,0.3111
15287,-1.5706,-9.8306,-0.0407,-0.7558,0.4189,0.3179
15295,-1.6089,-9.9551,0.0215,-0.7810,0.4338,0.3236
15303,-1.5969,-9.9982,-0.0311,-0.8037,0.4531,0.3263
15311,-1.5874,-10.0604,0.0670,-0.8262,0.4678,0.3348
15319,-1.6161,-10.0892,0.0215,-0.8497,0.4786,0.3428
15327,-1.6855,-10.1562,0.0263,-0.8696,0.4855,0.3453
15335,-1.6185,-10.2759,0.1077,-0.8873,0.4972,0.3483
15343,-1.6783,-10.3166,0.1053,-0.9105,0.4992,0.3547
15351,-1.6592,-10.3884,0.0503,-0.9281,0.5091,0.3599
15358,-1.6568,-10.4483,0.0072,-0.9502,0.5137,0.3609
15367,-1.6640,-10.4674,0.0455,-0.9627,0.5185,0.3679
15375,-1.7047,-10.5560,0.0670,-0.9788,0.5227,0.3720
15383,-1.6855,-10.5800,0.0862,-0.9996,0.5295,0.3741
15391,-1.7119,-10.7021,0.0958,-1.0184,0.5332,0.3764
15399,-1.6927,-10.7739,0.1053,-1.0404,0.5329,0.3769
15407,-1.6759,-10.8122,0.0934,-1.0532,0.5359,0.3802
15415,-1.7454,-10.8481,0.1365,-1.0718,0.5335,0.3796
15423,-1.7358,-10.9559,0.1293,-1.0917,0.5323,0.3820
15431,-1.7717,-11.0085,0.0790,-1.1093,0.5313,0.3842
15439,-1.7549,-10.9846,0.1484,-1.1253,0.5289,0.3874
15447,-1.7047,-11.0133,0.0670,-1.1419,0.5287,0.3854
15455,-1.7573,-11.1139,0.1748,-1.1627,0.5236,0.3844
15463,-1.7789,-11.1666,0.1006,-1.1759,0.5171,0.3849
15471,-1.7166,-11.2120,0.1748,-1.1943,0.5057,0.3848
15479,-1.7957,-11.2743,0.0862,-1.2108,0.4978,0.3808
15488,-1.7813,-11.2982,0.1508,-1.2253,0.4870,0.3817
15495,-1.7430,-11.3485,0.1891,-1.2418,0.4762,0.3814
15503,-1.8364,-11.4084,0.1844,-1.2564,0.4672,0.3752
15511,-1.8100,-11.4036,0.2083,-1.2688,0.4602,0.3757
15519,-1.8076,-11.4299,0.2155,-1.2804,0.4489,0.3758
15527,-1.7980,-11.5137,0.1820,-1.2909,0.4441,0.3741
15535,-1.8483,-11.4802,0.2107,-1.2971,0.4319,0.3705
15543,-1.7957,-11.4970,0.1484,-1.3050,0.4237,0.3712
15551,-1.7549,-11.5281,0.1700,-1.3139,0.4135,0.3671
15559,-1.8196,-11.5305,0.1820,-1.3202,0.4005,0.3663
15567,-1.8076,-11.5808,0.2466,-1.3230,0.3878,0.3627
15576,-1.7861,-11.5927,0.2107,-1.3278,0.3801,0.3596
15583,-1.7885,-11.5544,0.2538,-1.3282,0.3709,0.3555
15591,-1.7837,-11.5161,0.2059,-1.3302,0.3628,0.3533
15599,-1.8531,-11.5520,0.2346,-1.3282,0.3549,0.3507
15607,-1.8459,-11.5712,0.1365,-1.3291,0.3423,0.3515
15616,-1.7980,-11.5161,0.2873,-1.3266,0.3395,0.3457
15623,-1.8196,-11.4323,0.1915,-1.3205,0.3299,0.3457
15631,-1.8555,-11.4802,0.2945,-1.3154,0.3171,0.3419
15639,-1.8531,-11.4371,0.1963,-1.3102,0.3075,0.3429
15647,-1.7573,-11.4108,0.2083,-1.2981,0.2984,0.3391
15655,-1.8076,-11.3892,0.2514,-1.2855,0.2902,0.3343
15664,-1.7909,-11.3461,0.3041,-1.2776,0.2878,0.3317
15671,-1.7597,-11.3270,0.2538,-1.2646,0.2823,0.3293
15679,-1.7286,-11.2671,0.3136,-1.2513,0.2734,0.3283
15687,-1.7095,-11.2216,0.2298,-1.2404,0.2702,0.3215
15695,-1.7549,-11.2240,0.2562,-1.2288,0.2611,0.3192
15704,-1.6664,-11.1067,0.2705,-1.2127,0.2545,0.3171
15711,-1.6951,-11.1211,0.2083,-1.1973,0.2473,0.3131
15719,-1.6640,-11.0516,0.2227,-1.1844,0.2498,0.3051
15727,-1.6927,-10.9822,0.2658,-1.1658,0.2465,0.3055
15735,-1.7190,-10.8816,0.2849,-1.1503,0.2481,0.2971
15744,-1.6831,-10.8840,0.2442,-1.1329,0.2474,0.2982
15752,-1.6712,-10.9032,0.2610,-1.1163,0.2459,0.2894
15759,-1.6640,-10.7548,0.3017,-1.1001,0.2457,0.2834
15767,-1.6544,-10.7835,0.2418,-1.0832,0.2443,0.2810
15775,-1.6352,-10.6710,0.2274,-1.0617,0.2417,0.2751
15783,-1.5754,-10.6350,0.2107,-1.0472,0.2441,0.2703
15792,-1.5993,-10.5584,0.2634,-1.0256,0.2462,0.2626
15799,-1.6065,-10.5201,0.1748,-1.0054,0.2493,0.2573
15807,-1.5634,-10.4579,0.2322,-0.9831,0.2541,0.2485
15815,-1.5897,-10.3597,0.2394,-0.9621,0.2542,0.2403
15823,-1.5969,-10.2831,0.2322,-0.9350,0.2578,0.2330
15832,-1.5754,-10.2256,0.3639,-0.9092,0.2625,0.2242
15840,-1.5874,-10.1825,0.2466,-0.8861,0.2627,0.2170
15847,-1.5012,-10.0509,0.2921,-0.8628,0.2647,0.2101
15855,-1.4940,-10.0293,0.2059,-0.8388,0.2685,0.2038
15863,-1.5299,-9.9982,0.2777,-0.8106,0.2686,0.1949
15872,-1.4102,-9.9120,0.2298,-0.7830,0.2733,0.1880
15880,-1.4461,-9.8497,0.1508,-0.7549,0.2758,0.1780
15887,-1.4772,-9.7588,0.2179,-0.7264,0.2795,0.1688
15895,-1.4964,-9.7205,0.2155,-0.6947,0.2823,0.1583
15903,-1.4796,-9.7133,0.2179,-0.6660,0.2862,0.1549
15911,-1.3982,-9.6462,0.2107,-0.6324,0.2852,0.1463
15920,-1.4964,-9.5337,0.2801,-0.6009,0.2856,0.1372
15927,-1.4676,-9.5098,0.1891,-0.5662,0.2890,0.1316
15935,-1.4126,-9.5098,0.1915,-0.5324,0.2831,0.1231
15943,-1.4317,-9.4379,0.2753,-0.4958,0.2819,0.1147
15951,-1.4413,-9.3853,0.2753,-0.4644,0.2794,0.1083
15960,-1.4198,-9.3398,0.2705,-0.4205,0.2742,0.1005
15968,-1.4102,-9.2392,0.3567,-0.3852,0.2721,0.0913
15975,-1.3982,-9.3063,0.2801,-0.3460,0.2683,0.0803
15983,-1.4198,-9.2967,0.2610,-0.3067,0.2606,0.0725
15991,-1.3360,-9.2440,0.3184,-0.2709,0.2527,0.0644
16000,-1.3695,-9.1985,0.2849,-0.2348,0.2438,0.0556
16008,-1.3719,-9.1147,0.2825,-0.1919,0.2318,0.0506
16015,-1.4341,-9.1219,0.3089,-0.1492,0.2214,0.0405
16023,-1.3695,-9.1650,0.2059,-0.1119,0.2140,0.0348
16031,-1.3719,-9.1099,0.2729,-0.0730,0.1947,0.0260
16039,-1.4006,-9.0740,0.2298,-0.0312,0.1839,0.0185
16048,-1.3599,-9.1147,0.3089,0.0103,0.1681,0.0123
16056,-1.4246,-9.1842,0.3950,0.0510,0.1547,0.0033
16063,-1.4030,-9.1602,0.3543,0.0883,0.1352,-0.0029
16071,-1.3982,-9.0908,0.2705,0.1311,0.1150,-0.0135
16079,-1.3886,-9.1315,0.2753,0.1708,0.0947,-0.0181
16088,-1.3455,-9.1339,0.2394,0.2069,0.0782,-0.0273
16096,-1.3934,-9.1506,0.2658,0.2431,0.0517,-0.0350
16103,-1.4102,-9.2320,0.2298,0.2801,0.0309,-0.0433
16111,-1.3838,-9.2225,0.2131,0.3180,0.0049,-0.0465
16119,-1.4174,-9.2536,0.2753,0.3560,-0.0171,-0.0569
16128,-1.4341,-9.2560,0.2203,0.3868,-0.0426,-0.0637
16136,-1.4126,-9.2703,0.3041,0.4261,-0.0683,-0.0677
16144,-1.4269,-9.2799,0.2394,0.4582,-0.0941,-0.0754
16151,-1.4222,-9.3518,0.1221,0.4942,-0.1210,-0.0834
16159,-1.3958,-9.4427,0.2011,0.5233,-0.1420,-0.0874
16167,-1.4724,-9.4020,0.2849,0.5577,-0.1671,-0.0971
16176,-1.4509,-9.5217,0.1987,0.5881,-0.1927,-0.1066
16184,-1.4724,-9.5457,0.2394,0.6183,-0.2184,-0.1106
16191,-1.4078,-9.5457,0.1484,0.6499,-0.2421,-0.1199
16199,-1.5275,-9.6869,0.2227,0.6805,-0.2634,-0.1251
16207,-1.5562,-9.7037,0.2490,0.7125,-0.2874,-0.1308
16216,-1.5443,-9.7492,0.1341,0.7400,-0.3088,-0.1383
16224,-1.4485,-9.7923,0.1652,0.7678,-0.3323,-0.1420
16232,-1.5179,-9.8761,0.2155,0.7962,-0.3521,-0.1495
16239,-1.5682,-9.9168,0.1077,0.8182,-0.3722,-0.1569
16247,-1.5203,-10.0245,0.0862,0.8438,-0.3888,-0.1636
16256,-1.5730,-10.0365,0.0982,0.8665,-0.4061,-0.1677
16264,-1.6017,-10.1323,0.1628,0.8924,-0.4209,-0.1760
16272,-1.5778,-10.2304,0.1197,0.9120,-0.4362,-0.1832
16279,-1.5514,-10.2328,0.1437,0.9286,-0.4494,-0.1859
16287,-1.5921,-10.3214,0.0790,0.9462,-0.4640,-0.1937
16295,-1.6137,-10.3621,0.1676,0.9658,-0.4760,-0.2008
16304,-1.6089,-10.4220,-0.0120,0.9826,-0.4874,-0.2046
16312,-1.6041,-10.4052,0.0790,0.9983,-0.4948,-0.2096
16320,-1.6664,-10.5345,0.0287,1.0154,-0.5040,-0.2136
16327,-1.7047,-10.6231,0.0359,1.0285,-0.5084,-0.2202
16335,-1.6783,-10.6207,0.1437,1.0443,-0.5179,-0.2222
16344,-1.6640,-10.7715,-0.0120,1.0573,-0.5243,-0.2298
16352,-1.7071,-10.8074,0.0168,1.0698,-0.5249,-0.2360
16360,-1.7095,-10.8266,-0.0048,1.0809,-0.5311,-0.2402
16367,-1.6759,-10.8769,0.0287,1.0941,-0.5365,-0.2451
16375,-1.7406,-10.9415,0.0359,1.1022,-0.5399,-0.2493
16384,-1.7190,-10.9750,-0.0120,1.1158,-0.5404,-0.2591
16392,-1.6831,-11.0133,0.0383,1.1255,-0.5377,-0.2649
16400,-1.7502,-11.0157,0.1077,1.1347,-0.5411,-0.2683
16408,-1.7214,-11.0947,-0.0455,1.1417,-0.5359,-0.2754
16415,-1.6903,-11.1235,-0.0144,1.1562,-0.5303,-0.2825
16423,-1.6831,-11.1666,-0.0646,1.1580,-0.5252,-0.2899
16432,-1.7478,-11.2168,-0.0599,1.1684,-0.5184,-0.2956
16440,-1.7238,-11.2240,-0.0359,1.1727,-0.5151,-0.3004
16448,-1.7430,-11.2336,-0.0718,1.1810,-0.5111,-0.3070
16455,-1.7238,-11.2719,-0.0455,1.1855,-0.4991,-0.3119
16463,-1.7933,-11.3270,-0.1748,1.1948,-0.4922,-0.3170
16472,-1.7813,-11.3270,-0.0048,1.1954,-0.4896,-0.3191
16480,-1.7861,-11.3485,-0.0263,1.2012,-0.4808,-0.3263
16488,-1.7502,-11.3246,-0.1149,1.2089,-0.4770,-0.3291
16495,-1.8100,-11.3653,-0.0814,1.2140,-0.4688,-0.3340
16503,-1.7478,-11.3557,-0.0718,1.2171,-0.4616,-0.3337
16512,-1.7837,-11.3820,-0.0718,1.2225,-0.4511,-0.3365
16520,-1.7741,-11.3701,-0.0886,1.2245,-0.4459,-0.3389
16528,-1.7933,-11.3413,-0.0718,1.2271,-0.4355,-0.3372
16536,-1.7502,-11.3892,-0.0311,1.2285,-0.4254,-0.3427
16543,-1.7885,-11.3964,-0.1006,1.2269,-0.4219,-0.3412
16551,-1.7238,-11.3102,-0.0742,1.2220,-0.4128,-0.3415
16560,-1.7502,-11.2982,-0.0359,1.2196,-0.4076,-0.3411
16568,-1.7741,-11.3030,-0.0910,1.2157,-0.3960,-0.3380
16576,-1.7669,-11.2671,-0.0575,1.2120,-0.3890,-0.3332
16583,-1.7813,-11.2312,0.0599,1.2044,-0.3810,-0.3352
16591,-1.7693,-11.2192,-0.0575,1.2019,-0.3718,-0.3368
16600,-1.8411,-11.1690,-0.1173,1.1894,-0.3644,-0.3337
16608,-1.8196,-11.1737,-0.0670,1.1819,-0.3595,-0.3285
16616,-1.7933,-11.1330,-0.1772,1.1690,-0.3505,-0.3281
16624,-1.7286,-11.0995,-0.1030,1.1580,-0.3449,-0.3208
16631,-1.7813,-11.0516,-0.0263,1.1434,-0.3387,-0.3183
16640,-1.7980,-11.0373,-0.0934,1.1303,-0.3258,-0.3142
16648,-1.8004,-10.9822,-0.1030,1.1170,-0.3210,-0.3088
16656,-1.7262,-10.9559,-0.0814,1.1049,-0.3203,-0.3047
16664,-1.7573,-10.9319,-0.1077,1.0849,-0.3144,-0.2996
16671,-1.7023,-10.8577,-0.0766,1.0692,-0.3076,-0.2906
16679,-1.7119,-10.7763,-0.0958,1.0516,-0.3043,-0.2862
16688,-1.7023,-10.7739,-0.0670,1.0320,-0.2996,-0.2821
16696,-1.7023,-10.6662,-0.1006,1.0143,-0.2955,-0.2787
16704,-1.6975,-10.6853,-0.0479,0.9931,-0.2931,-0.2743
16712,-1.7190,-10.5967,-0.0862,0.9781,-0.2912,-0.2646
16719,-1.6305,-10.5560,-0.0934,0.9547,-0.2834,-0.2633
16728,-1.7262,-10.4435,-0.0599,0.9375,-0.2797,-0.2579
16736,-1.7023,-10.4076,-0.1101,0.9170,-0.2730,-0.2533
16744,-1.6688,-10.2951,-0.0694,0.8969,-0.2719,-0.2471
16752,-1.6185,-10.2951,-0.1269,0.8728,-0.2650,-0.2419
16759,-1.5874,-10.1993,-0.1125,0.8529,-0.2645,-0.2401
16768,-1.6185,-10.1945,-0.1030,0.8320,-0.2586,-0.2301
16776,-1.6185,-10.1107,-0.1006,0.8083,-0.2538,-0.2270
16784,-1.6305,-10.0676,-0.1580,0.7849,-0.2499,-0.2212
16792,-1.5490,-10.0173,-0.0455,0.7602,-0.2482,-0.2137
16800,-1.5969,-9.9814,-0.1245,0.7364,-0.2450,-0.2077
16807,-1.6328,-9.9000,-0.1389,0.7124,-0.2454,-0.1968
16816,-1.6352,-9.8162,-0.0072,0.6927,-0.2406,-0.1892
16824,-1.4988,-9.7971,0.0000,0.6654,-0.2348,-0.1835
16832,-1.6448,-9.7420,-0.0311,0.6404,-0.2364,-0.1733
16840,-1.5730,-9.6702,-0.0838,0.6185,-0.2306,-0.1655
16847,-1.5874,-9.6055,-0.0790,0.5905,-0.2248,-0.1584
16856,-1.4724,-9.6007,-0.0527,0.5637,-0.2232,-0.1475
16864,-1.5706,-9.5122,-0.0383,0.5361,-0.2154,-0.1404
16872,-1.5060,-9.5505,-0.1389,0.5068,-0.2116,-0.1292
16880,-1.5514,-9.4451,-0.1245,0.4806,-0.2097,-0.1210
16888,-1.4988,-9.3972,-0.1389,0.4521,-0.1986,-0.1103
16896,-1.5275,-9.3757,-0.0694,0.4270,-0.1947,-0.1021
16904,-1.5275,-9.3326,-0.0838,0.3948,-0.1876,-0.0905
16912,-1.4748,-9.3230,-0.1413,0.3698,-0.1847,-0.0770
16920,-1.5347,-9.3158,-0.1508,0.3369,-0.1729,-0.0681
16928,-1.5012,-9.2488,-0.0742,0.3104,-0.1665,-0.0548
16935,-1.4844,-9.2392,-0.0455,0.2786,-0.1549,-0.0424
16944,-1.4581,-9.1578,-0.1149,0.2451,-0.1462,-0.0336
16952,-1.4365,-9.1530,-0.1820,0.2142,-0.1356,-0.0181
16960,-1.4317,-9.1339,-0.1221,0.1807,-0.1232,-0.0047
16968,-1.5155,-9.0884,-0.0862,0.1494,-0.1126,0.0060
16976,-1.5083,-9.0525,-0.0646,0.1202,-0.0983,0.0180
16984,-1.5012,-9.0956,-0.1389,0.0870,-0.0847,0.0334
16992,-1.4796,-9.1435,-0.1389,0.0552,-0.0686,0.0456
17000,-1.4892,-9.1315,-0.0814,0.0195,-0.0570,0.0565
17008,-1.4700,-9.1506,-0.1149,-0.0067,-0.0382,0.0678
17016,-1.5131,-9.0668,-0.0814,-0.0396,-0.0238,0.0799
17024,-1.4820,-9.1458,-0.1652,-0.0742,-0.0107,0.0899
17032,-1.5083,-9.1171,-0.0934,-0.1037,0.0131,0.1006
17040,-1.4892,-9.1482,-0.0790,-0.1400,0.0245,0.1154
17048,-1.4844,-9.1267,-0.1365,-0.1699,0.0416,0.1268
17056,-1.4389,-9.1842,-0.1269,-0.2025,0.0600,0.1379
17064,-1.5251,-9.1578,-0.1484,-0.2365,0.0758,0.1508
17072,-1.4964,-9.2129,-0.1077,-0.2634,0.0925,0.1623
17080,-1.5467,-9.1866,-0.0646,-0.2946,0.1083,0.1712
17088,-1.4796,-9.2680,-0.1317,-0.3248,0.1247,0.1819
17096,-1.4724,-9.2751,-0.0694,-0.3507,0.1439,0.1917
17104,-1.5012,-9.3733,-0.0958,-0.3817,0.1633,0.1978
17112,-1.5227,-9.3637,-0.1221,-0.4116,0.1844,0.2085
17120,-1.4940,-9.3541,-0.0886,-0.4429,0.2034,0.2172
17128,-1.5060,-9.3613,-0.1413,-0.4716,0.2212,0.2256
17136,-1.5730,-9.5050,-0.1389,-0.5009,0.2390,0.2333
17144,-1.5538,-9.5457,-0.0479,-0.5300,0.2535,0.2433
17152,-1.5131,-9.5481,-0.0622,-0.5561,0.2707,0.2523
17160,-1.5706,-9.5624,-0.0646,-0.5841,0.2870,0.2582
17168,-1.5610,-9.6893,-0.1245,-0.6066,0.3043,0.2665
17176,-1.5586,-9.7037,0.0311,-0.6298,0.3168,0.2730
17184,-1.5826,-9.7133,0.0168,-0.6524,0.3335,0.2826
17192,-1.5107,-9.7971,0.0072,-0.6730,0.3444,0.2860
17200,-1.5874,-9.9407,0.0192,-0.6949,0.3575,0.2942
17208,-1.6257,-9.9216,0.0766,-0.7152,0.3695,0.2983
17216,-1.5514,-9.9575,0.0072,-0.7345,0.3793,0.3026
17224,-1.6328,-10.0197,0.1532,-0.7557,0.3885,0.3119
17232,-1.6305,-10.0796,0.0407,-0.7750,0.3994,0.3167
17240,-1.6352,-10.1179,0.0575,-0.7926,0.4081,0.3204
17248,-1.6281,-10.1586,0.0407,-0.8138,0.4147,0.3247
17256,-1.6017,-10.1778,0.0503,-0.8284,0.4238,0.3319
17264,-1.6089,-10.2424,0.0599,-0.8478,0.4279,0.3352
17272,-1.6257,-10.3908,0.1389,-0.8644,0.4323,0.3407
17281,-1.6424,-10.3621,0.1101,-0.8816,0.4330,0.3425
17288,-1.6879,-10.4531,0.0742,-0.8998,0.4337,0.3433
17296,-1.6568,-10.5225,0.0838,-0.9198,0.4353,0.3501
17304,-1.6735,-10.6111,0.0886,-0.9333,0.4339,0.3543
17312,-1.7286,-10.6183,0.0527,-0.9503,0.4367,0.3560
17320,-1.7526,-10.6710,0.0455,-0.9671,0.4371,0.3603
17328,-1.6975,-10.7236,0.0168,-0.9816,0.4345,0.3628
17336,-1.7023,-10.7476,0.1460,-0.9978,0.4338,0.3656
17344,-1.7549,-10.7907,0.0862,-1.0134,0.4323,0.3640
17352,-1.7310,-10.7691,0.0790,-1.0252,0.4253,0.3655
17360,-1.7310,-10.8362,0.0646,-1.0408,0.4229,0.3667
17369,-1.6999,-10.9008,0.1053,-1.0511,0.4194,0.3665
17376,-1.7358,-10.9319,0.1053,-1.0668,0.4135,0.3667
17384,-1.7310,-10.9774,0.0934,-1.0817,0.4081,0.3656
17392,-1.7645,-11.0038,0.0934,-1.0982,0.4073,0.3635
17400,-1.7214,-11.0397,0.2346,-1.1115,0.3961,0.3635
17409,-1.7885,-11.0852,0.1245,-1.1269,0.3968,0.3640
17416,-1.6831,-11.0109,0.1101,-1.1354,0.3885,0.3651
17424,-1.7621,-11.1043,0.1556,-1.1454,0.3861,0.3616
17432,-1.7621,-11.0971,0.2466,-1.1535,0.3793,0.3640
17440,-1.7669,-11.1522,0.2011,-1.1590,0.3750,0.3607
17448,-1.7717,-11.1905,0.1604,-1.1682,0.3720,0.3587
17457,-1.7238,-11.2120,0.2107,-1.1716,0.3629,0.3584
17464,-1.7573,-11.2144,0.1820,-1.1740,0.3543,0.3545
17472,-1.7861,-11.2647,0.1269,-1.1803,0.3504,0.3521
17480,-1.7933,-11.1977,0.1772,-1.1814,0.3495,0.3504
17488,-1.7621,-11.2480,0.1460,-1.1828,0.3419,0.3491
17497,-1.6855,-11.2073,0.2825,-1.1850,0.3419,0.3443
17504,-1.7837,-11.2264,0.2107,-1.1778,0.3411,0.3427
17512,-1.7837,-11.2144,0.1963,-1.1780,0.3348,0.3396
17520,-1.7095,-11.2120,0.2897,-1.1747,0.3308,0.3365
17528,-1.8028,-11.1594,0.1915,-1.1727,0.3303,0.3331
17537,-1.6975,-11.1618,0.1676,-1.1654,0.3246,0.3304
17545,-1.7406,-11.1282,0.2466,-1.1612,0.3202,0.3271
17552,-1.7885,-11.1163,0.2394,-1.1527,0.3183,0.3244
17560,-1.6592,-11.0995,0.2873,-1.1418,0.3115,0.3224
17568,-1.7166,-11.1067,0.1796,-1.1349,0.3074,0.3187
17576,-1.7071,-10.9726,0.2753,-1.1277,0.3067,0.3146
17585,-1.7286,-10.9870,0.1556,-1.1170,0.3000,0.3138
17592,-1.6664,-10.9559,0.2682,-1.1060,0.2955,0.3040
17600,-1.7310,-10.9391,0.2346,-1.0956,0.2943,0.3036
17608,-1.6903,-10.9223,0.2203,-1.0816,0.2942,0.2980
17616,-1.7071,-10.8553,0.2035,-1.0673,0.2846,0.2976
17625,-1.6903,-10.7931,0.2873,-1.0573,0.2862,0.2907
17633,-1.6568,-10.7212,0.2514,-1.0405,0.2815,0.2846
17640,-1.6616,-10.7093,0.3304,-1.0257,0.2777,0.2814
17648,-1.6185,-10.7380,0.2298,-1.0124,0.2719,0.2799
17656,-1.6568,-10.6063,0.1772,-0.9958,0.2691,0.2749
17665,-1.5945,-10.6039,0.2777,-0.9819,0.2666,0.2673
17673,-1.6688,-10.5489,0.3041,-0.9681,0.2614,0.2610
17680,-1.6688,-10.4603,0.2179,-0.9514,0.2607,0.2541
17688,-1.6065,-10.5321,0.2562,-0.9375,0.2523,0.2489
17696,-1.6137,-10.4076,0.2370,-0.9158,0.2491,0.2417
17704,-1.5921,-10.3525,0.2203,-0.8997,0.2473,0.2394
17713,-1.5538,-10.3765,0.2634,-0.8809,0.2447,0.2316
17720,-1.5874,-10.2831,0.2514,-0.8600,0.2438,0.2244
17728,-1.5443,-10.1897,0.1724,-0.8392,0.2423,0.2180
17736,-1.5586,-10.2304,0.1939,-0.8202,0.2438,0.2116
17744,-1.5897,-10.1251,0.2562,-0.7970,0.2402,0.2061
17753,-1.4964,-10.0724,0.1844,-0.7803,0.2385,0.1978
17761,-1.5155,-9.9934,0.2274,-0.7540,0.2390,0.1891
17768,-1.4940,-9.9120,0.1317,-0.7321,0.2368,0.1836
17776,-1.5634,-9.9431,0.2322,-0.7067,0.2372,0.1741
17784,-1.4988,-9.8904,0.1460,-0.6783,0.2342,0.1695
17793,-1.4940,-9.8641,0.2586,-0.6524,0.2297,0.1597
17801,-1.4892,-9.7516,0.2370,-0.6222,0.2316,0.1533
17808,-1.4844,-9.6774,0.1748,-0.5955,0.2296,0.1440
17816,-1.4653,-9.6702,0.2203,-0.5698,0.2268,0.1356
17824,-1.4030,-9.6223,0.2801,-0.5357,0.2225,0.1312
17832,-1.4365,-9.5672,0.3136,-0.5117,0.2194,0.1216
17841,-1.4413,-9.5385,0.2801,-0.4792,0.2161,0.1087
17849,-1.4293,-9.4882,0.2705,-0.4461,0.2116,0.1071
17856,-1.4653,-9.4619,0.3280,-0.4165,0.2112,0.0970
17864,-1.3910,-9.4619,0.2729,-0.3813,0.2053,0.0911
17872,-1.4485,-9.4403,0.2418,-0.3488,0.1970,0.0811
17881,-1.4341,-9.4451,0.2370,-0.3150,0.1904,0.0757
17889,-1.4246,-9.4068,0.3089,-0.2850,0.1863,0.0678
17896,-1.3551,-9.3805,0.2490,-0.2501,0.1779,0.0597
17904,-1.4174,-9.3446,0.3136,-0.2150,0.1721,0.0504
17912,-1.3815,-9.2991,0.1796,-0.1768,0.1624,0.0456
17921,-1.4078,-9.2943,0.3304,-0.1439,0.1514,0.0361
17929,-1.3886,-9.2823,0.2753,-0.1079,0.1454,0.0296
17937,-1.3719,-9.2656,0.2682,-0.0719,0.1344,0.0246
17944,-1.4222,-9.2919,0.2634,-0.0354,0.1216,0.0151
17952,-1.4102,-9.2991,0.3519,-0.0037,0.1046,0.0092
17960,-1.3886,-9.2632,0.2801,0.0362,0.0969,-0.0005
17969,-1.3120,-9.3015,0.2801,0.0713,0.0811,-0.0085
17977,-1.3838,-9.2440,0.2298,0.1031,0.0653,-0.0184
17984,-1.4365,-9.2584,0.2179,0.1350,0.0468,-0.0225
17992,-1.3312,-9.2703,0.2370,0.1703,0.0316,-0.0302
18000,-1.3767,-9.3134,0.2466,0.2069,0.0208,-0.0356
18009,-1.4509,-9.3063,0.1963,0.2370,0.0020,-0.0454
18017,-1.3982,-9.3637,0.2514,0.2694,-0.0185,-0.0510
18025,-1.4198,-9.3398,0.2514,0.2974,-0.0378,-0.0573
18032,-1.4413,-9.3470,0.1604,0.3317,-0.0562,-0.0630
18040,-1.4964,-9.3757,0.1628,0.3599,-0.0797,-0.0719
18049,-1.4317,-9.4499,0.1963,0.3936,-0.0931,-0.0763
18057,-1.4006,-9.4020,0.2322,0.4243,-0.1184,-0.0846
18065,-1.4365,-9.4667,0.2083,0.4533,-0.1340,-0.0909
18072,-1.4198,-9.5409,0.1269,0.4808,-0.1483,-0.1014
18080,-1.4748,-9.5912,0.1269,0.5147,-0.1743,-0.1055
18088,-1.4293,-9.6031,0.2298,0.5407,-0.1899,-0.1114
18097,-1.5107,-9.6031,0.1245,0.5700,-0.2057,-0.1188
18105,-1.4724,-9.6965,0.1652,0.6015,-0.2302,-0.1292
18113,-1.4892,-9.7324,0.1245,0.6273,-0.2486,-0.1355
18120,-1.5562,-9.7731,0.1987,0.6516,-0.2621,-0.1368
18128,-1.5467,-9.7923,0.1317,0.6801,-0.2809,-0.1430
18137,-1.5419,-9.8617,0.0886,0.7023,-0.2952,-0.1506
18145,-1.5850,-9.8928,0.1030,0.7268,-0.3116,-0.1568
18153,-1.5993,-9.9503,0.1460,0.7481,-0.3269,-0.1589
18160,-1.5395,-10.0509,0.1197,0.7690,-0.3399,-0.1679
18168,-1.5874,-10.0796,0.1748,0.7870,-0.3499,-0.1739
18177,-1.5299,-10.1730,0.2107,0.8104,-0.3637,-0.1772
18185,-1.5826,-10.1730,0.1006,0.8243,-0.3753,-0.1803
18193,-1.6376,-10.1610,0.1700,0.8452,-0.3881,-0.1885
18201,-1.5945,-10.2137,0.1628,0.8617,-0.3977,-0.1933
18208,-1.5730,-10.3238,0.1389,0.8784,-0.4065,-0.1984
18216,-1.6783,-10.4028,0.0575,0.8930,-0.4165,-0.2044
18225,-1.6257,-10.3932,0.0838,0.9046,-0.4223,-0.2094
18233,-1.6065,-10.4770,0.0239,0.9216,-0.4283,-0.2146
18241,-1.6496,-10.5393,0.0072,0.9369,-0.4367,-0.2194
18248,-1.6161,-10.5680,0.0646,0.9439,-0.4399,-0.2262
18256,-1.6257,-10.5632,0.0766,0.9553,-0.4461,-0.2304
18265,-1.6233,-10.6279,0.0503,0.9634,-0.4498,-0.2337
18273,-1.6640,-10.6135,-0.0215,0.9735,-0.4517,-0.2397
18281,-1.6783,-10.7045,0.0431,0.9870,-0.4546,-0.2434
18289,-1.6807,-10.7739,0.0120,0.9931,-0.4553,-0.2455
18296,-1.7023,-10.7571,0.0503,1.0032,-0.4547,-0.2523
18305,-1.7023,-10.8050,0.0311,1.0119,-0.4567,-0.2574
18313,-1.6137,-10.8290,0.0575,1.0184,-0.4555,-0.2627
18321,-1.7430,-10.8338,0.0168,1.0291,-0.4557,-0.2691
18329,-1.7023,-10.8673,-0.0455,1.0377,-0.4568,-0.2702
18336,-1.7454,-10.9104,-0.1053,1.0469,-0.4542,-0.2789
18344,-1.7334,-10.9247,0.0024,1.0491,-0.4497,-0.2832
18353,-1.7286,-10.9080,-0.1006,1.0569,-0.4479,-0.2876
18361,-1.6927,-10.9726,0.0503,1.0591,-0.4491,-0.2894
18369,-1.6759,-11.0564,-0.0215,1.0666,-0.4427,-0.2982
18377,-1.7023,-11.0301,0.0551,1.0722,-0.4370,-0.3012
18384,-1.7741,-11.0804,0.0096,1.0765,-0.4367,-0.3048
18393,-1.7023,-11.0397,-0.0024,1.0812,-0.4353,-0.3084
18401,-1.7334,-11.0468,-0.0670,1.0844,-0.4263,-0.3080
18409,-1.7286,-11.1546,-0.0048,1.0868,-0.4293,-0.3096
18417,-1.7813,-11.0971,0.0742,1.0926,-0.4279,-0.3083
18424,-1.7430,-11.0588,0.0263,1.0964,-0.4173,-0.3119
18433,-1.7573,-11.0229,-0.0599,1.0954,-0.4126,-0.3128
18441,-1.7358,-11.0445,0.0072,1.0985,-0.4089,-0.3132
18449,-1.7142,-11.0373,-0.0455,1.0961,-0.4054,-0.3134
18457,-1.7573,-11.0373,-0.0670,1.0978,-0.3989,-0.3123
18464,-1.7310,-11.0516,-0.0311,1.0916,-0.3948,-0.3142
18472,-1.7334,-11.0397,-0.0311,1.0906,-0.3900,-0.3107
18481,-1.7621,-10.9750,-0.0311,1.0841,-0.3788,-0.3142
18489,-1.7214,-11.0109,-0.0718,1.0838,-0.3730,-0.3090
18497,-1.6807,-10.9822,0.0000,1.0776,-0.3649,-0.3080
18505,-1.7549,-10.9439,-0.0335,1.0677,-0.3599,-0.3068
18512,-1.7645,-10.9223,-0.1030,1.0603,-0.3507,-0.3016
18521,-1.7693,-10.8505,-0.0144,1.0471,-0.3456,-0.3038
18529,-1.7238,-10.8481,-0.0886,1.0381,-0.3353,-0.2978
18537,-1.7023,-10.7452,-0.0838,1.0293,-0.3295,-0.2934
18545,-1.7238,-10.8050,0.0024,1.0144,-0.3207,-0.2907
18552,-1.7358,-10.7452,-0.0263,1.0016,-0.3146,-0.2890
18561,-1.7119,-10.7715,-0.1030,0.9911,-0.3066,-0.2832
18569,-1.7023,-10.6973,-0.0503,0.9751,-0.2994,-0.2726
