Timestamp,AccelX,AccelY,AccelZ,GyroX,GyroY,GyroZ
407,-1.6783,-3.6919,9.2799,-0.0209,-0.0396,0.0069
414,-1.6951,-3.6536,9.2033,-0.0580,-0.0931,0.0048
422,-1.6855,-3.6536,9.2584,-0.0846,-0.1319,0.0069
431,-1.8004,-3.6176,9.3996,-0.1027,-0.1462,0.0164
438,-1.9178,-3.4979,9.4212,-0.0913,-0.1652,0.0389
446,-1.7310,-3.5099,9.3182,-0.0791,-0.1804,0.0574
454,-1.6328,-3.5841,9.1889,-0.0810,-0.1727,0.0638
462,-1.5897,-3.5865,9.2871,-0.0867,-0.1607,0.0605
471,-1.6496,-3.5267,9.2919,-0.0817,-0.1680,0.0636
479,-1.6328,-3.5051,9.3589,-0.0829,-0.2029,0.0691
486,-1.5538,-3.5506,9.4355,-0.0785,-0.2361,0.0878
494,-1.5874,-3.6679,9.4715,-0.0781,-0.2791,0.0965
502,-1.5251,-3.6631,9.3637,-0.0693,-0.3171,0.1170
510,-1.6305,-3.7326,9.5289,-0.0480,-0.3391,0.1439
519,-1.5610,-3.7757,9.2488,-0.0380,-0.3609,0.1575
526,-1.6281,-3.7038,9.2129,-0.0337,-0.3613,0.1624
534,-1.5467,-3.7302,9.0405,-0.0313,-0.3537,0.1680
542,-1.4054,-3.7661,8.9136,-0.0358,-0.3031,0.1588
550,-1.3479,-3.6990,8.8921,-0.0532,-0.2446,0.1519
559,-1.2737,-3.6966,8.9136,-0.0693,-0.2049,0.1274
567,-1.1899,-3.8858,9.2344,-0.0874,-0.1951,0.0993
574,-1.1995,-3.7230,9.2344,-0.0853,-0.1549,0.0695
582,-1.2402,-3.7350,9.1794,-0.0827,-0.1315,0.0662
590,-1.4174,-3.7182,9.3518,-0.0727,-0.1291,0.0581
599,-1.3599,-3.7182,9.4308,-0.0600,-0.1231,0.0625
607,-1.6209,-3.7445,9.4523,-0.0699,-0.1431,0.0787
614,-1.8531,-3.5482,9.5984,-0.0665,-0.1760,0.1033
622,-1.5634,-3.7110,9.5553,-0.0512,-0.1945,0.1223
630,-1.4820,-3.7158,9.4882,-0.0376,-0.1820,0.1411
638,-1.4150,-3.6943,9.3685,-0.0125,-0.1685,0.1458
647,-1.2953,-3.5793,9.0860,0.0336,-0.1480,0.1589
655,-1.0199,-3.8020,8.9208,0.0237,-0.1007,0.1541
662,-0.8428,-3.8092,8.7771,0.0163,-0.0181,0.1143
670,-0.8882,-3.6799,8.7101,0.0169,0.0687,0.0621
678,-0.9864,-3.7206,8.7676,0.0424,0.1302,0.0336
687,-0.9433,-3.6176,8.8514,0.0987,0.1855,0.0317
695,-1.5107,-3.5243,8.8346,0.1440,0.2470,0.0689
702,-0.8284,-3.7804,8.2744,0.1298,0.2980,0.0108
710,-1.0678,-3.7062,8.7747,0.1067,0.3376,-0.0024
718,-1.0343,-3.8714,8.5928,0.0877,0.3806,-0.0602
727,-1.1301,-3.4189,8.4276,0.0867,0.4498,-0.0777
735,-0.8882,-3.6320,8.1116,0.1037,0.6126,-0.0833
743,-0.7446,-3.7541,8.2169,0.0687,0.7176,-0.1328
750,-1.1660,-3.7278,8.3677,0.0195,0.7883,-0.2094
758,-1.4653,-3.7996,8.8585,-0.0076,0.8002,-0.2326
766,-1.4844,-3.7685,9.0668,-0.0470,0.7600,-0.2705
775,-1.7454,-3.3447,8.9854,-0.0505,0.6860,-0.2687
783,-2.0638,-3.3734,8.9807,-0.0581,0.6310,-0.2108
790,-0.8092,-4.0965,8.7101,-0.0799,0.6512,-0.2024
798,-1.2115,-4.0701,8.6335,-0.1122,0.6947,-0.2345
806,-1.4365,-3.7014,8.9208,-0.1147,0.8100,-0.2891
815,-1.4389,-3.7781,9.2488,-0.0995,0.8964,-0.3293
823,-1.2426,-4.0318,9.6822,-0.0807,0.8900,-0.3853
831,-1.4581,-3.8116,9.9264,-0.0249,0.8880,-0.4321
838,-1.9992,-3.4237,10.2328,0.0493,0.8851,-0.4580
846,-0.7542,-3.8164,11.5233,0.0456,0.5718,-0.5095
855,-3.6703,-3.8858,12.4115,0.0763,0.2094,-0.5384
863,-4.7740,-2.6552,11.4395,0.2581,-0.1579,-0.2906
871,-3.6823,-2.7749,10.8481,0.2758,-0.6785,-0.0862
878,-8.7245,-3.9361,19.6127,0.1907,-1.5849,0.0377
886,-4.2880,-2.6384,10.4315,0.3385,-2.5756,0.4844
894,-1.4485,-3.4189,9.9623,0.5797,-2.9753,0.5814
903,-0.3232,-4.2760,7.9033,0.5132,-2.5979,0.5205
911,0.0622,-4.0318,5.9376,0.5225,-1.9999,0.3921
919,-0.7805,-3.9552,6.0382,0.4622,-1.3303,0.3063
926,-1.1756,-3.4381,6.2249,0.3797,-0.8038,0.2839
934,-1.2186,-3.5602,6.8809,0.3112,-0.4691,0.2894
943,-1.0965,-3.3854,7.5992,0.1905,-0.4021,0.3126
951,-6.2537,-3.1244,5.6790,-0.0220,-0.3355,0.5035
959,-3.3686,-2.9904,7.0413,-0.2072,-0.4089,0.7077
966,-1.2546,-3.4046,8.1092,-0.3774,-0.3256,0.7621
974,0.7590,-4.0270,8.7293,-0.4782,-0.2385,0.6795
983,1.2474,-4.3718,8.6407,-0.5276,-0.1408,0.4960
991,1.1540,-4.0247,7.8985,-0.6599,-0.1104,0.3292
999,0.2849,-3.5243,7.9416,-0.9060,-0.1108,0.2233
1006,-0.4094,-3.6392,8.8322,-1.1466,-0.3043,0.1632
1014,-1.1756,-3.6871,9.4116,-1.2914,-0.5303,0.1503
1022,-1.6041,-4.1563,11.8657,-1.1089,-0.8912,0.2096
1031,-1.5586,-3.6488,9.8378,-0.7975,-1.1318,0.2900
1039,-0.8092,-3.9456,9.2273,-0.7778,-1.1975,0.3897
1047,0.0958,-4.1348,8.9807,-0.7137,-1.0814,0.3617
1054,0.4812,-4.7262,9.2919,-0.6246,-0.7638,0.2702
1062,0.8356,-4.5897,9.4691,-0.5116,-0.3826,0.1458
1071,0.6847,-4.5226,9.8258,-0.3885,-0.1643,0.0036
1079,0.2849,-4.3718,10.0078,-0.2994,-0.0430,-0.0977
1087,-0.7685,-4.2066,10.6494,-0.1572,0.0745,-0.1392
1094,-1.3168,-4.1779,11.1402,0.0246,0.1916,-0.1114
1102,-1.4533,-4.0821,11.3796,0.2098,0.2168,-0.0658
1111,-1.3982,-4.1228,11.1330,0.3475,0.1985,-0.0289
1119,-1.2737,-4.2210,10.5273,0.4419,0.1724,-0.0096
1127,-1.1157,-4.1444,9.7947,0.5163,0.1751,-0.0019
1135,-1.2067,-3.8810,9.1746,0.5836,0.2846,0.0023
1142,-1.1588,-3.9169,8.4874,0.5856,0.3944,0.0172
1150,-1.1588,-4.0223,8.1977,0.5144,0.3904,0.0330
1159,-1.1444,-3.7302,7.9559,0.4174,0.3455,0.0512
1167,-0.8619,-3.6655,7.9057,0.3176,0.2894,0.0638
1175,-0.5818,-3.8475,7.8219,0.2114,0.2233,0.0584
1182,-0.3160,-3.9097,7.7117,0.1022,0.1533,0.0269
1190,-0.1125,-3.7637,7.2712,-0.0213,0.1015,-0.0177
1199,0.0192,-3.9121,7.0246,-0.1839,0.0489,-0.0783
1207,-0.2251,-3.9648,7.0126,-0.3479,0.0017,-0.1251
1215,-0.8523,-3.7134,7.6016,-0.4860,-0.0358,-0.1431
1223,-1.6281,-3.6512,8.1930,-0.5532,-0.0769,-0.0981
1230,-2.0470,-3.6703,8.9376,-0.5588,-0.1446,-0.0095
1239,-2.1715,-3.6248,9.5265,-0.5355,-0.2288,0.0923
1247,-1.9082,-3.7972,9.8809,-0.4803,-0.2718,0.1940
1255,-1.3862,-4.0701,10.1466,-0.4120,-0.2992,0.2630
1263,-0.9122,-4.2353,10.1466,-0.3388,-0.2691,0.3003
1270,-0.4812,-4.2904,10.0820,-0.2481,-0.2014,0.3043
1278,-0.0024,-4.2904,9.9383,-0.1512,-0.1069,0.2767
1287,0.3783,-4.3742,9.7923,-0.0755,-0.0084,0.2046
1295,0.4070,-4.4197,9.7564,-0.0077,0.0553,0.1351
1303,0.5483,-4.4197,9.7564,0.0540,0.0573,0.0622
1311,0.5459,-4.5753,9.3661,0.0791,0.0420,-0.0274
1318,0.3831,-4.5873,9.0597,0.0729,0.0742,-0.1166
1327,-0.0431,-4.4652,9.0190,0.0518,0.1298,-0.1873
1335,-0.9697,-4.1659,9.2273,0.0540,0.1775,-0.2122
1343,-1.8435,-3.8164,9.4595,0.0530,0.2098,-0.1712
1351,-2.2529,-3.7038,9.9934,0.0978,0.1468,-0.0782
1358,-2.1308,-3.6703,10.2687,0.1439,0.0244,0.0147
1367,-1.4317,-3.8499,10.0197,0.2045,-0.0252,0.0690
1375,-0.7781,-3.8642,9.6151,0.2687,-0.0115,0.0723
1383,-0.5722,-4.0342,9.2703,0.3007,0.0196,0.0430
1391,-0.4477,-4.3527,8.9208,0.2810,0.0448,-0.0015
1399,-0.6512,-4.1587,8.6694,0.2334,0.0873,-0.0354
1406,-0.8691,-3.9289,8.6694,0.2049,0.1138,-0.0533
1415,-0.9026,-4.0103,8.6622,0.1724,0.1444,-0.0461
1423,-0.9673,-4.2138,8.5234,0.1118,0.1524,-0.0440
1431,-3.0526,-3.9049,6.8187,-0.0758,0.0366,0.0966
1439,-3.1699,-3.8690,7.6854,-0.2811,-0.2826,0.2741
1446,-2.9018,-3.4860,7.3263,-0.5121,-0.4185,0.4991
1455,-2.4756,-4.6687,7.6423,-0.7426,-0.6242,0.6544
1463,-1.3144,-4.2784,7.8147,-0.8676,-0.7316,0.7308
1471,-0.9505,-4.6471,8.0110,-1.0341,-0.8164,0.7669
1479,-0.5291,-4.3838,8.3629,-1.1357,-0.8370,0.7558
1486,-0.1077,-4.6448,8.5138,-1.1758,-0.8430,0.7290
1495,0.4597,-4.8219,8.8945,-1.2135,-0.8171,0.6536
1503,0.8332,-4.9105,9.7803,-1.1656,-0.7877,0.5317
1511,1.1923,-4.1827,11.5855,-0.9926,-0.6620,0.4060
1519,1.6448,-4.8578,11.9016,-0.6588,-0.4243,0.2461
1527,1.8627,-5.5210,12.0261,-0.3355,-0.1712,0.0545
1534,1.8364,-5.3989,11.7340,-0.0028,0.2269,-0.1264
1543,1.5179,-5.2768,11.0468,0.2915,0.6154,-0.3042
1551,1.0702,-5.4205,9.9216,0.4286,0.8491,-0.4579
1559,-0.3041,-4.8985,8.9208,0.4475,0.9286,-0.5656
1567,-1.1875,-4.4772,9.0094,0.4474,0.9308,-0.5660
1574,-1.3264,-4.4532,8.4132,0.4700,0.9269,-0.5501
1583,-1.2450,-4.5442,8.4084,0.4295,0.8885,-0.5432
1591,-1.6305,-4.5586,8.8059,0.3877,0.8316,-0.5275
1599,-2.1644,-4.2880,9.3350,0.4097,0.7623,-0.4547
1607,-2.5283,-4.0654,9.5553,0.4414,0.5955,-0.3421
1615,-2.5163,-4.0127,9.2751,0.4510,0.4032,-0.2284
1623,-2.2194,-4.1204,8.6335,0.4489,0.2721,-0.1251
1631,-1.6735,-4.1037,8.1858,0.4367,0.2181,-0.0520
1639,-1.1660,-4.2306,7.5369,0.3766,0.1552,-0.0209
1647,-0.9673,-4.3000,6.7325,0.2328,0.0494,-0.0290
1655,-0.9912,-4.2306,6.3877,0.0597,-0.0084,-0.0502
1662,-1.3096,-4.2665,6.3375,-0.0849,-0.0093,-0.0462
1671,-1.8268,-4.1013,6.2441,-0.2733,-0.0498,0.0135
1679,-2.1021,-4.0534,6.9192,-0.4511,-0.2048,0.0991
1687,-2.0734,-4.3215,7.3574,-0.5950,-0.3985,0.2076
1695,-1.4796,-4.6591,7.6423,-0.6928,-0.5072,0.2950
1703,-0.8787,-4.6639,7.5633,-0.8022,-0.5192,0.3020
1711,-0.9720,-4.7429,8.4228,-0.8664,-0.4690,0.3152
1719,-0.8116,-4.7884,9.0453,-0.8639,-0.4639,0.3332
1727,-0.2562,-4.8267,9.1602,-0.8156,-0.4838,0.3341
1735,0.1053,-4.8554,9.2273,-0.7637,-0.4234,0.2852
1743,0.2322,-4.8052,9.3877,-0.6899,-0.3140,0.2146
1751,-0.2107,-4.8866,9.4930,-0.5918,-0.2336,0.1671
1759,-0.5650,-4.9871,9.3278,-0.5498,-0.1839,0.1556
1767,-0.8045,-4.8937,9.3374,-0.5180,-0.1600,0.1720
1775,-0.3711,-4.9153,9.3350,-0.4758,-0.1676,0.1761
1783,-0.1963,-5.0302,9.0644,-0.4549,-0.1355,0.1604
1792,-0.1053,-5.0781,9.0740,-0.4166,-0.0851,0.1260
1799,1.8100,-5.0733,6.5027,-0.5299,-0.1966,0.0930
1807,-1.0534,-4.0773,8.9352,-0.3689,-0.2753,0.0866
1815,-0.9816,-5.0996,9.1219,-0.2325,0.0613,0.1431
1823,-0.3807,-5.1691,9.6486,-0.1222,0.0702,0.1246
1831,-0.1724,-4.9919,9.7348,-0.0608,-0.0581,0.0857
1839,0.3136,-5.3151,9.3925,0.0276,-0.0115,0.0348
1847,0.5291,-5.2002,8.9447,0.0741,0.1336,-0.0733
1855,0.4669,-5.1356,8.7819,0.1382,0.2713,-0.1569
1863,0.2514,-5.2816,8.4707,0.1889,0.3789,-0.2214
1871,0.2203,-5.1619,7.9176,0.2158,0.4381,-0.2872
1880,0.0742,-5.0326,7.3191,0.2241,0.5043,-0.3384
1887,-0.0359,-4.9177,5.9687,0.2117,0.6219,-0.3825
1895,-0.9768,-4.9177,3.4524,0.2098,1.2879,-0.4473
1903,-1.9776,-4.6040,2.9712,0.1740,2.2360,-0.3071
1911,-1.4389,-5.0422,1.4246,0.0905,2.7847,-0.0763
1920,-1.4006,-4.7860,1.5802,-0.1849,3.3486,-0.1231
1927,-0.8667,-5.9304,0.1389,-0.3651,3.7080,-0.0429
1935,-0.6081,-6.6822,2.8922,-0.7273,3.6322,0.0661
1943,-0.7494,-8.5281,1.9034,-0.8992,3.1542,-0.0958
1951,-2.4325,-8.3989,1.4940,-1.0369,1.4168,-0.1923
1959,-4.9416,-7.0030,4.5322,-1.5513,0.3154,0.0774
1968,-2.6887,-3.6703,4.7860,-0.8909,-0.5161,0.6198
1975,-1.4461,-2.5642,1.5395,-0.6021,-0.8239,0.8820
1983,-0.3160,-1.7119,-0.7973,-0.6574,-0.9453,1.0503
1991,0.0048,-1.5227,-0.7542,-0.9005,-0.9449,1.0760
1999,-0.0048,-2.2266,-0.2705,-1.1538,-1.0367,1.0936
2008,-0.7494,-2.5977,1.6831,-1.0631,-1.3074,1.1263
2015,-1.4054,-3.0358,2.8156,-0.7809,-1.8796,1.2504
2023,-1.4198,-3.3495,3.2753,-0.3513,-2.6843,1.3864
2031,-1.3384,-3.7254,3.1412,0.1319,-3.5296,1.4623
2039,-0.7829,-3.9433,2.5163,0.6162,-4.1260,1.4601
2048,-0.2059,-4.1037,1.7454,1.0666,-4.3645,1.3705
2056,0.7230,-4.3886,0.9002,1.4754,-4.1863,1.1654
2063,1.3527,-4.6735,0.2394,1.8129,-3.6998,0.8439
2071,1.6664,-4.9536,-0.0622,2.0787,-3.1300,0.4409
2079,1.4653,-5.4420,0.0120,2.2881,-2.6448,0.0032
2087,0.8787,-6.2537,0.5483,2.5063,-2.3326,-0.4145
2096,0.3424,-7.1946,1.2091,2.8137,-2.1919,-0.7701
2103,-0.4214,-8.1307,1.6951,3.1904,-2.2705,-1.0353
2111,-1.2378,-8.8562,1.8148,3.5646,-2.5488,-1.2153
2119,-1.9393,-9.7133,0.4262,3.8343,-2.9779,-1.2959
2127,-1.5012,-10.3956,-1.6376,3.1171,-3.1124,-1.5371
2136,-1.8579,-9.8928,-3.7326,2.5131,-2.9830,-1.6086
2144,-2.3631,-10.0126,-4.9632,1.6382,-2.6352,-1.5243
2151,-2.6815,-9.4499,-5.9759,0.5542,-2.1224,-1.2778
2159,-3.3351,-8.5425,-6.3111,-0.6888,-1.5779,-0.8636
2167,-3.7948,-7.6543,-6.2297,-1.9696,-1.1547,-0.3066
2176,-4.4221,-7.2544,-5.6551,-3.2073,-0.8982,0.3580
2184,-4.5586,-7.6016,-4.3622,-4.2955,-0.8118,1.0913
2191,-4.6184,-8.6598,-3.1675,-4.3657,-0.8853,1.7974
2199,-4.7070,-9.9790,-2.2194,-4.3657,-1.1089,2.4910
2207,-4.4341,-11.5137,-1.4102,-4.3657,-1.3674,3.1443
2215,-4.0725,-13.6733,-0.3783,-4.3657,-1.5382,3.7136
2224,-3.3543,-15.8185,0.2993,-4.3657,-1.4902,4.1514
2231,-2.4732,-18.0738,0.5555,-4.3657,-1.2544,4.3656
2239,-1.8004,-19.6133,0.6249,-4.3657,-0.8516,4.3656
2247,-1.9704,-19.6133,0.5962,-4.3657,-0.4150,4.3656
2255,-0.9409,-19.6133,0.6536,-4.3657,-0.0449,4.1480
2264,0.7159,-19.6133,1.0965,-4.3657,0.2446,3.1481
2272,0.3855,-19.6133,1.1229,-4.3657,0.4806,2.2172
2279,-0.0120,-19.6133,1.8914,-4.3657,0.6784,1.3680
2287,-1.1995,-19.6133,2.4948,-4.3657,0.7830,0.6618
2295,-2.4038,-19.6133,3.1364,-4.3657,0.7301,0.2210
2304,-3.2992,-19.6133,3.0502,-4.2322,0.5243,0.0281
2312,-3.7421,-19.2829,2.4828,-3.8894,0.3872,0.0366
2319,-3.9433,-17.6716,1.5131,-3.6540,0.4679,0.2049
2327,-4.0151,-16.5128,0.9002,-3.5188,0.7677,0.4804
2335,-4.0031,-16.4146,0.6919,-3.4066,1.2155,0.8031
2343,-4.3000,-16.9462,1.0343,-3.2607,1.6453,1.1339
2352,-4.2952,-17.8105,1.8244,-3.0397,1.9332,1.4453
2360,-4.0845,-19.1967,2.5905,-2.7098,2.0683,1.6594
2367,-3.5195,-19.6133,3.2441,-2.2696,2.0813,1.7303
2375,-3.0071,-19.6133,3.9911,-1.7196,2.0225,1.6244
2383,-2.5283,-19.6133,4.1037,-1.1032,1.9311,1.3779
2392,-2.1237,-19.6133,3.8786,-0.5084,1.8495,0.9991
2400,-2.0159,-19.6133,3.2034,-0.0131,1.8127,0.5820
2407,-2.3990,-19.6133,2.4948,0.3556,1.8544,0.1981
2415,-2.7940,-19.6133,1.8004,0.6023,1.9752,-0.0999
2423,-3.3710,-19.6133,0.7901,0.6785,2.1521,-0.2706
2432,-3.8307,-19.6133,-0.2945,0.5185,2.3738,-0.2982
2440,-4.3431,-19.6133,-1.5562,0.1085,2.6152,-0.1859
2448,-4.6256,-19.6133,-2.5738,-0.5548,2.8726,0.0171
2455,-4.8315,-19.6133,-3.3016,-1.4045,3.1004,0.2838
2463,-4.8507,-19.2781,-3.6464,-2.3792,3.2820,0.5594
2471,-4.9297,-19.2853,-3.6152,-3.4186,3.3851,0.8170
2480,-4.7645,-19.6133,-2.9090,-4.3657,3.3766,1.0076
2488,-4.6448,-19.6133,-2.0183,-4.3657,3.2630,1.1157
2495,-4.4317,-19.6133,-1.2091,-4.3657,3.0944,1.1458
2503,-4.0462,-19.6133,-0.3376,-4.3657,2.9780,1.0624
2511,-3.5913,-19.6133,0.5531,-4.3657,2.9284,0.8442
2520,-3.0263,-19.6133,1.4030,-4.3657,2.9400,0.5011
2528,-2.7749,-19.6133,2.2027,-4.3657,2.9862,0.0613
2536,-2.8754,-19.6133,2.9616,-4.3657,3.0098,-0.4021
2543,-3.1963,-19.6133,3.3639,-4.3657,2.9549,-0.8088
2551,-3.4812,-19.6133,3.7110,-4.3657,2.8150,-1.0980
2560,-3.9480,-19.6133,3.8978,-4.3657,2.5951,-1.2381
2568,-4.3000,-19.6133,3.9720,-4.3657,2.3157,-1.2200
2576,-4.5418,-19.3595,3.8571,-4.1159,1.9664,-1.0698
2583,-4.6519,-17.7698,3.6248,-3.6556,1.5732,-0.8334
2591,-4.3862,-16.4913,3.1125,-3.2664,1.1712,-0.5449
2599,-3.9504,-15.5671,2.4900,-2.9659,0.8363,-0.2638
2608,-3.5147,-15.0930,2.0255,-2.7212,0.6182,-0.0430
2616,-3.0167,-14.8440,1.7885,-2.5083,0.5212,0.1123
2624,-2.6456,-14.7315,1.4222,-2.3238,0.5063,0.2054
2631,-2.4421,-14.6908,1.3767,-2.1635,0.5005,0.2470
2639,-2.2697,-14.8417,1.4389,-2.0086,0.4739,0.2410
2648,-2.1835,-14.9422,1.4198,-1.8422,0.4153,0.2057
2656,-2.1644,-15.0284,1.5395,-1.6759,0.3179,0.1515
2664,-2.1811,-15.2463,1.6281,-1.5058,0.1701,0.0855
2671,-2.2577,-15.3612,1.5610,-1.3352,-0.0137,0.0226
2679,-2.3343,-15.3923,1.5107,-1.1795,-0.2012,-0.0276
2688,-2.4349,-15.4211,1.3216,-1.0455,-0.3551,-0.0576
2696,-2.4493,-15.3444,1.0534,-0.9346,-0.4711,-0.0644
2704,-2.5474,-15.1481,0.7374,-0.8723,-0.5440,-0.0481
2712,-2.5498,-14.7579,0.4621,-0.8615,-0.5821,-0.0140
2719,-2.5905,-14.2263,0.0527,-0.9180,-0.6081,0.0545
2727,-2.6839,-13.5967,-0.3663,-1.0415,-0.6302,0.1432
2736,-2.6432,-12.8425,-0.6560,-1.2316,-0.6602,0.2530
2744,-2.4924,-12.1147,-0.9457,-1.4765,-0.6944,0.3656
2752,-2.2769,-11.5305,-1.0894,-1.7543,-0.7362,0.4679
2759,-2.0135,-11.0373,-1.1732,-2.0416,-0.7528,0.5449
2767,-1.8124,-10.5369,-1.1013,-2.3220,-0.7637,0.5845
2776,-1.5586,-10.1155,-1.1133,-2.5806,-0.7522,0.6006
2784,-1.2977,-9.7588,-1.1181,-2.8238,-0.7115,0.5798
2792,-1.0630,-9.5289,-1.0271,-3.0403,-0.6310,0.5311
2799,-0.8906,-9.4116,-0.9337,-3.2299,-0.5059,0.4646
2807,-0.7733,-9.2536,-0.9361,-3.3901,-0.3455,0.3740
2816,-0.7901,-9.1913,-0.6536,-3.5254,-0.1807,0.2689
2824,-0.8284,-9.2225,-0.6033,-3.6324,-0.0520,0.1644
2832,-0.8835,-9.1506,-0.2921,-3.7062,0.0659,0.0653
2840,-0.9912,-9.0956,-0.1484,-3.7473,0.1632,-0.0286
2847,-1.0942,-9.0836,0.1053,-3.7490,0.2481,-0.1103
2855,-1.1253,-9.0429,0.2801,-3.7255,0.3264,-0.1771
2864,-1.1492,-8.8274,0.2562,-3.6687,0.4133,-0.2409
2872,-1.1564,-8.6335,0.4429,-3.5846,0.5060,-0.2891
2880,-1.2426,-8.2408,0.5411,-3.4753,0.5983,-0.3208
2887,-1.2953,-7.8673,0.5315,-3.3361,0.6845,-0.3304
2895,-1.3934,-7.3933,0.8021,-3.1778,0.7545,-0.3151
2904,-1.4269,-6.8857,0.8715,-2.9945,0.7973,-0.2813
2912,-1.4341,-6.2920,1.0008,-2.7924,0.8140,-0.2240
2920,-1.3527,-5.7892,1.1061,-2.5751,0.8111,-0.1519
2928,-1.4054,-5.4085,1.2258,-2.3382,0.7985,-0.0711
2935,-1.3216,-4.9656,1.3431,-2.0813,0.7789,0.0173
2944,-1.2330,-4.5274,1.2402,-1.8158,0.7711,0.1055
2952,-1.0846,-4.1492,1.3431,-1.5455,0.7777,0.1829
2960,-0.9744,-3.8906,1.3120,-1.2738,0.8003,0.2555
2968,-0.9529,-3.6392,1.2019,-1.0110,0.8412,0.3183
2975,-0.8428,-3.5003,1.0271,-0.7572,0.8962,0.3668
2983,-0.7207,-3.3615,1.0654,-0.5120,0.9605,0.4049
2992,-0.6369,-3.1771,0.9050,-0.2847,1.0409,0.4303
3000,-0.5411,-3.1963,0.7230,-0.0725,1.1293,0.4447
3008,-0.4477,-3.0933,0.6967,0.1331,1.2303,0.4535
3016,-0.4669,-3.0885,0.6871,0.3232,1.3432,0.4454
3023,-0.4190,-3.0263,0.6009,0.4980,1.4685,0.4425
3032,-0.3759,-3.0406,0.3950,0.6658,1.6014,0.4226
3040,-0.3376,-2.9928,0.4166,0.8195,1.7500,0.4009
3048,-0.2705,-2.9688,0.3496,0.9690,1.9117,0.3789
3056,-0.2969,-3.0574,0.3041,1.1133,2.0650,0.3564
3063,-0.2897,-3.1268,0.2442,1.2501,2.2052,0.3395
3072,-0.4477,-3.0933,0.4573,1.3896,2.3177,0.3368
3080,-0.5124,-3.1963,0.5076,1.5380,2.3916,0.3437
3088,-0.5722,-3.2346,0.5148,1.6880,2.4352,0.3668
3096,-0.6728,-3.4189,0.5674,1.8345,2.4491,0.3962
3104,-0.6488,-3.5314,0.6464,1.9933,2.4375,0.4369
3111,-0.7446,-3.6966,0.7278,2.1618,2.4051,0.4823
3120,-0.8045,-4.0247,0.8356,2.3373,2.3514,0.5361
3128,-0.9170,-4.2282,0.9601,2.5357,2.2616,0.6053
3136,-1.0870,-4.6376,1.1325,2.7507,2.1437,0.6857
3144,-1.1708,-5.0254,1.1827,2.9821,1.9926,0.7782
3151,-1.3575,-5.4851,1.2737,3.2350,1.7986,0.8907
3160,-1.4724,-6.1196,1.4844,3.5058,1.5856,1.0136
3168,-1.6185,-6.8091,1.5754,3.7964,1.3398,1.1463
3176,-1.8555,-7.7021,1.7047,4.1103,1.0680,1.2973
3184,-2.1093,-8.7173,1.8100,4.3656,0.7817,1.4598
3192,-2.2505,-10.0724,1.9249,4.3656,0.4730,1.6113
3200,-2.5546,-11.6143,2.0758,4.3656,0.1522,1.7862
3208,-2.8276,-13.3860,2.1955,4.3656,-0.1793,1.9501
3216,-3.2130,-15.5527,2.2649,4.3656,-0.5208,2.1025
3224,-3.6105,-18.1672,2.2075,4.3656,-0.8743,2.2489
3232,-4.0294,-19.6133,1.9273,4.3656,-1.2332,2.3815
3239,-4.4772,-19.6133,1.4198,4.3656,-1.5743,2.4956
3248,-4.8937,-19.6133,0.6393,4.3656,-1.8723,2.5903
3256,-4.9057,-19.6133,-0.7829,4.3656,-2.0959,2.6509
3264,-4.6926,-19.6133,-2.1548,4.3656,-2.2192,2.6690
3272,-4.0869,-19.6133,-3.0765,4.3656,-2.2211,2.6452
3280,-3.3232,-19.6133,-3.5698,4.3656,-2.1683,2.5811
3288,-2.6624,-19.1752,-3.3902,4.3656,-2.1362,2.4842
3296,-2.2984,-16.7570,-2.9497,3.7180,-2.1842,2.3663
3304,-2.2194,-14.7052,-2.3272,3.1573,-2.3599,2.2409
3312,-2.0734,-12.9383,-1.6688,2.7023,-2.6805,2.1289
3320,-1.8340,-11.8034,-1.3815,2.3519,-3.0688,2.0109
3328,-1.3336,-11.3605,-1.3360,2.0651,-3.4291,1.8321
3336,-0.8260,-11.2863,-1.6544,1.7880,-3.6437,1.5800
3344,-0.3089,-11.7460,-2.1237,1.4787,-3.6837,1.2196
3352,0.1532,-12.7348,-2.5953,1.1048,-3.5493,0.7731
3360,0.2562,-14.1306,-2.7845,0.6736,-3.3095,0.2429
3368,-0.0790,-16.3213,-2.7078,0.2040,-3.0325,-0.3135
3376,-0.7781,-19.0267,-2.5474,-0.2990,-2.8047,-0.8466
3384,-1.6448,-19.6133,-2.1931,-0.8114,-2.6866,-1.3270
3392,-2.7318,-19.6133,-1.7023,-1.3217,-2.6654,-1.7180
3400,-4.1132,-19.6133,-1.0343,-1.7910,-2.7492,-1.9272
3408,-5.3702,-19.6133,-0.0599,-2.1132,-2.9234,-1.8496
3416,-6.1196,-19.6133,1.1229,-2.1802,-3.1572,-1.4753
3424,-6.1866,-19.6133,2.2434,-1.9478,-3.3709,-0.9022
3432,-5.8778,-18.3468,3.1532,-1.4138,-3.5117,-0.2586
3440,-5.3271,-16.6110,4.0342,-0.6078,-3.5686,0.3571
3448,-4.6735,-15.3804,4.2042,0.3344,-3.5842,0.8708
3456,-3.9696,-14.9446,4.1755,1.2970,-3.6162,1.2196
3464,-3.4309,-15.4115,4.0199,2.2860,-3.7090,1.4041
3472,-2.9377,-16.3692,3.6152,3.1664,-3.8032,1.4072
3480,-2.3727,-17.5112,2.9784,3.9531,-3.8935,1.2321
3488,-1.8028,-18.6006,2.0662,4.3656,-3.9436,0.8573
3496,-1.2929,-19.4505,1.3862,4.3656,-3.9476,0.3311
3504,-0.3424,-19.6133,-1.3120,4.3656,-3.8645,-0.3328
3512,-0.3591,-19.6133,-0.5770,4.3656,-3.6684,-1.1739
3520,-0.5291,-19.6133,-0.4094,4.3656,-3.4146,-2.0290
3528,-1.3575,-19.6133,0.2035,4.3656,-3.1701,-2.8229
3536,-2.4756,-19.6133,0.7374,4.3656,-2.9965,-3.4755
3544,-3.8307,-19.6133,0.8523,4.3656,-2.9324,-3.9353
3552,-5.0446,-19.6133,0.2083,4.3656,-2.9142,-4.1484
3560,-6.1699,-19.6133,-0.8068,4.3656,-2.8393,-4.0658
3568,-6.5936,-19.6133,-1.9752,4.3656,-2.6225,-3.7134
3576,-6.6128,-19.6133,-2.8419,4.3656,-2.3001,-3.1724
3585,-6.5098,-19.1249,-3.0909,4.3656,-1.9462,-2.5173
3592,-6.1746,-16.9869,-2.8874,4.1688,-1.6519,-1.8378
3600,-5.6360,-15.5767,-2.4110,3.6559,-1.5050,-1.2051
3608,-4.9105,-14.5304,-1.9632,3.2049,-1.4993,-0.6821
3616,-4.2593,-13.7691,-1.7765,2.8070,-1.6038,-0.2916
3624,-3.5195,-13.3118,-1.8340,2.4232,-1.7199,-0.0296
3632,-2.7390,-13.0867,-2.0183,2.0576,-1.6932,0.1077
3640,-2.0614,-13.0723,-2.3008,1.6980,-1.5620,0.1255
3648,-1.6017,-13.1537,-2.4828,1.3009,-1.2887,0.0420
3656,-1.1372,-13.3285,-2.6240,0.8909,-0.9108,-0.1332
3664,-1.0271,-13.5440,-2.5139,0.5027,-0.4956,-0.3480
3673,-1.2522,-13.8816,-2.0925,0.1548,-0.0993,-0.5620
3680,-1.6831,-14.2311,-1.5682,-0.1139,0.2182,-0.7225
3688,-2.1955,-14.8297,-0.8930,-0.3160,0.4080,-0.8154
3696,-2.7222,-15.3157,-0.3424,-0.4389,0.4676,-0.8480
3704,-3.0454,-15.7371,0.3280,-0.4832,0.4231,-0.8176
3713,-3.2920,-15.8257,0.7638,-0.4182,0.3407,-0.7314
3720,-3.3423,-15.4905,1.0989,-0.2669,0.2830,-0.5942
3728,-3.3734,-14.7770,1.1564,-0.0593,0.2791,-0.4124
3736,-3.1771,-13.7284,0.9936,0.1577,0.3280,-0.2133
3744,-2.9521,-12.7036,0.9840,0.3757,0.4379,-0.0041
3752,-2.6767,-11.7388,0.9673,0.5935,0.5745,0.1900
3761,-2.4086,-10.9343,0.8643,0.7986,0.7103,0.3520
3768,-2.1237,-10.2639,0.8882,0.9954,0.7767,0.4758
3776,-1.9010,-9.7851,0.9744,1.1840,0.7687,0.5608
3784,-1.7238,-9.5074,0.9960,1.3729,0.6885,0.6050
3792,-1.3815,-9.3518,1.1971,1.5708,0.5806,0.5953
3801,-0.9960,-9.3398,1.1516,1.7648,0.4826,0.5139
3808,-0.5171,-9.2464,1.0271,1.9861,0.4302,0.3555
3816,-0.0694,-9.2296,0.9744,2.2163,0.4466,0.1138
3824,0.3472,-9.1554,0.9122,2.4540,0.5335,-0.1961
3832,0.5698,-9.0668,0.8643,2.7071,0.6784,-0.5584
3841,0.6297,-9.0980,0.8092,2.9693,0.8391,-0.9332
3849,0.4094,-9.1842,0.7877,3.2265,0.9737,-1.2921
3856,-0.1580,-9.1435,0.7159,3.4560,1.0154,-1.5756
3864,-0.6680,-9.2799,0.8715,3.6480,0.9725,-1.7722
3872,-1.0175,-9.3901,0.6273,3.8121,0.8439,-1.9064
3880,-1.3168,-9.4571,0.5100,3.9302,0.6796,-1.9859
3889,-1.5778,-9.4140,0.1484,3.9884,0.5080,-2.0163
3896,-1.7454,-9.2823,-0.1748,3.9819,0.3766,-1.9971
3904,-1.9537,-8.9902,-0.7781,3.8955,0.2954,-1.9313
3912,-2.0207,-8.5760,-1.1756,3.7241,0.2731,-1.8185
3920,-2.1691,-8.0924,-1.6209,3.4689,0.2990,-1.6577
3929,-2.2386,-7.2999,-1.9944,3.1292,0.3385,-1.4556
3937,-2.3607,-6.6056,-2.3607,2.7219,0.3539,-1.2176
3944,-2.3511,-5.9664,-2.4277,2.2641,0.3321,-0.9567
3952,-2.3655,-5.4133,-2.2745,1.7784,0.2641,-0.6856
3960,-2.2410,-5.0159,-2.1931,1.3063,0.1788,-0.4281
3969,-1.9561,-4.6759,-1.9154,0.8779,0.0526,-0.1923
3977,-1.7430,-4.4149,-1.6017,0.4924,-0.0697,0.0007
3984,-1.4629,-4.2042,-1.4940,0.1476,-0.1880,0.1544
3992,-1.1947,-4.1108,-1.3599,-0.1584,-0.2489,0.2766
4000,-0.9385,-4.1108,-1.1684,-0.4143,-0.2590,0.3576
4008,-0.8547,-4.1132,-0.9840,-0.6350,-0.2389,0.4124
4017,-0.7207,-4.0893,-0.9170,-0.8255,-0.2149,0.4447
4025,-0.6991,-4.0247,-0.6608,-0.9926,-0.2326,0.4600
4032,-0.6967,-3.9648,-0.4693,-1.1381,-0.2746,0.4687
4040,-0.5962,-3.9361,-0.3615,-1.2690,-0.3415,0.4691
4048,-0.5770,-3.8954,-0.2729,-1.3796,-0.4210,0.4595
4057,-0.4980,-3.8690,-0.2945,-1.4887,-0.5092,0.4437
4065,-0.4884,-3.8259,-0.2466,-1.5859,-0.5868,0.4199
4072,-0.4094,-3.9002,-0.1508,-1.6550,-0.6358,0.3920
4080,-0.4286,-3.9433,-0.1101,-1.7099,-0.6507,0.3635
4088,-0.4812,-4.0893,0.0431,-1.7425,-0.6472,0.3412
4097,-0.5938,-4.1803,0.1365,-1.7609,-0.6539,0.3288
4105,-0.7566,-4.4053,0.1772,-1.7714,-0.6555,0.3363
4112,-0.9385,-4.7070,0.0311,-1.7826,-0.6719,0.3575
4120,-1.0582,-5.0685,0.0311,-1.8021,-0.6923,0.3970
4128,-1.2139,-5.4540,-0.1508,-1.8386,-0.7083,0.4479
4136,-1.3168,-5.9879,-0.1101,-1.8902,-0.7088,0.5057
4145,-1.4246,-6.5673,-0.2921,-1.9542,-0.7012,0.5688
4153,-1.6305,-7.2999,-0.2849,-2.0312,-0.6587,0.6440
4160,-1.7980,-8.0685,-0.4405,-2.1208,-0.5959,0.7345
4168,-2.1069,-8.9615,-0.4980,-2.2362,-0.5296,0.8414
4176,-2.3607,-9.9742,-0.6608,-2.3714,-0.4445,0.9788
4185,-2.7222,-11.0804,-0.7518,-2.5452,-0.3531,1.1353
4193,-3.0143,-12.2368,-0.9673,-2.7508,-0.2405,1.3292
4200,-3.2513,-13.3644,-1.1588,-2.9940,-0.1268,1.5410
4208,-3.5530,-14.3461,-1.2330,-3.2746,-0.0047,1.7768
4216,-3.5482,-15.1337,-1.1660,-3.5645,0.1396,2.0026
4225,-3.3471,-15.4737,-0.8236,-3.8381,0.2871,2.1995
4233,-3.0119,-15.6605,-0.5435,-4.0245,0.4514,2.3291
4241,-2.7342,-15.3708,-0.0215,-4.1243,0.5954,2.4042
4248,-2.4995,-14.7914,0.4573,-4.1346,0.7290,2.4287
4256,-2.2482,-14.2192,0.9457,-4.0550,0.8412,2.4135
4264,-1.9537,-13.7331,1.3408,-3.8865,0.9176,2.3519
4273,-1.7047,-13.3046,1.7597,-3.6300,0.9705,2.2519
4281,-1.4485,-12.9095,2.0806,-3.3073,1.0098,2.1075
4288,-1.1732,-12.6486,2.3535,-2.9290,1.0337,1.9213
4296,-0.8356,-12.5169,2.3224,-2.5209,1.0736,1.6840
4304,-0.5435,-12.6103,2.5833,-2.0813,1.1315,1.3853
4313,-0.2466,-12.8233,2.5809,-1.6347,1.2035,1.0160
4321,-0.1173,-13.2687,2.5929,-1.1563,1.2776,0.5903
4329,-0.3615,-13.8169,2.4756,-0.6995,1.3390,0.1511
4336,-0.7709,-14.4514,2.2458,-0.2838,1.3821,-0.2286
4344,-1.1779,-15.3181,2.2721,0.1063,1.4132,-0.5508
4353,-1.7095,-16.1561,1.9848,0.4401,1.4317,-0.8224
4361,-2.1907,-17.1090,1.4581,0.6915,1.4659,-1.0206
4369,-2.6983,-17.7339,0.8116,0.8179,1.5243,-1.1338
4376,-3.2729,-17.9900,-0.0503,0.7793,1.6192,-1.1345
4384,-3.7589,-17.7746,-0.9481,0.5520,1.7785,-1.0235
4392,-4.1013,-17.2598,-1.8364,0.1407,2.0051,-0.8042
4401,-4.3167,-16.6301,-2.3248,-0.4110,2.2472,-0.5139
4409,-4.4532,-16.0986,-2.5402,-1.0459,2.4693,-0.1863
4417,-4.4388,-15.8209,-2.2098,-1.6818,2.6180,0.1474
4424,-4.3886,-15.7419,-1.5419,-2.2411,2.6714,0.4531
4432,-4.1444,-15.8041,-0.9457,-2.7062,2.6364,0.7048
4441,-3.8595,-15.9143,-0.5818,-3.0780,2.5626,0.8893
4449,-3.4046,-16.3404,-0.1676,-3.3763,2.4974,1.0000
4457,-3.0885,-16.9390,0.0670,-3.6140,2.4701,1.0224
4464,-2.7988,-17.6429,0.2538,-3.8040,2.4650,0.9683
4472,-2.7701,-18.3563,0.4166,-3.9496,2.4692,0.8584
4481,-2.7701,-19.1632,0.6704,-4.0605,2.4548,0.7079
4489,-2.9281,-19.6133,0.8212,-4.1418,2.4010,0.5481
4497,-3.2154,-19.6133,0.8763,-4.2146,2.3170,0.4150
4505,-3.4836,-19.6133,1.0295,-4.2833,2.1987,0.3239
4512,-3.7804,-19.6133,1.1301,-4.3503,2.0552,0.2754
4520,-3.9313,-19.6133,1.1779,-4.3657,1.9040,0.2646
4529,-4.0582,-19.6133,1.1779,-4.3657,1.7607,0.2866
4537,-4.0199,-19.6133,1.2857,-4.3657,1.6477,0.3339
4545,-3.8307,-19.6133,1.2905,-4.3657,1.5637,0.3941
4552,-3.7086,-19.4146,1.1899,-4.3657,1.5010,0.4584
4560,-3.4812,-18.4641,1.3791,-4.3657,1.4318,0.5255
4569,-3.3471,-17.6285,1.9010,-4.3134,1.3368,0.5822
4577,-3.1915,-16.8815,2.2529,-4.1049,1.1960,0.6290
4585,-2.9353,-16.3404,2.6695,-3.8129,1.0036,0.6599
4593,-2.5642,-15.8760,2.9544,-3.4415,0.7819,0.6432
4600,-2.1763,-15.5144,3.1220,-3.0266,0.5604,0.5769
4609,-1.8411,-15.3325,2.9928,-2.5893,0.3652,0.4439
4617,-1.5131,-15.3277,2.9856,-2.1444,0.2101,0.2521
4625,-1.3575,-15.3157,2.6767,-1.7120,0.1023,0.0107
4633,-1.3623,-15.3947,2.3224,-1.3427,0.0037,-0.2380
4640,-1.6089,-15.4330,1.9585,-1.0416,-0.0851,-0.4534
4648,-1.8675,-15.5216,1.7262,-0.7957,-0.1817,-0.6263
4657,-2.1668,-15.6748,1.3862,-0.6255,-0.2766,-0.7438
4665,-2.4804,-15.7012,1.0367,-0.5269,-0.3794,-0.8034
4673,-2.7438,-15.5599,0.5555,-0.5192,-0.4594,-0.8072
4681,-2.9592,-15.3492,0.0910,-0.5923,-0.5103,-0.7562
4688,-3.1053,-14.9805,-0.4070,-0.7520,-0.5164,-0.6544
4697,-3.2250,-14.5113,-0.7254,-0.9880,-0.4955,-0.5068
4705,-3.2106,-14.0635,-1.0271,-1.2741,-0.4555,-0.3299
4713,-3.1675,-13.5847,-1.1349,-1.5888,-0.4084,-0.1331
4721,-3.1388,-13.1944,-1.1612,-1.9072,-0.3718,0.0622
4728,-2.9856,-12.8760,-0.8547,-2.1929,-0.3563,0.2485
4737,-2.7533,-12.5217,-0.5626,-2.4211,-0.3616,0.3982
4745,-2.5331,-12.2631,-0.4573,-2.6088,-0.3730,0.5191
4753,-2.2673,-12.1003,-0.3783,-2.7679,-0.3792,0.6019
4761,-2.0614,-11.9926,-0.2658,-2.8966,-0.3523,0.6470
4769,-1.8364,-11.8609,-0.2418,-3.0012,-0.3054,0.6663
4776,-1.7789,-11.9279,-0.1077,-3.0891,-0.2475,0.6572
4785,-1.6927,-11.9519,0.0120,-3.1546,-0.1948,0.6368
4793,-1.7358,-11.9566,0.1413,-3.1998,-0.1358,0.6054
4801,-1.7502,-11.9135,0.0622,-3.2337,-0.0849,0.5753
4809,-1.8220,-11.8417,0.0910,-3.2552,-0.0424,0.5606
4816,-1.8411,-11.7029,0.1389,-3.2527,0.0037,0.5486
4825,-1.8244,-11.4419,0.2346,-3.2467,0.0434,0.5441
4833,-1.8148,-11.1330,0.3089,-3.2150,0.0970,0.5517
4841,-1.7382,-10.7931,0.3998,-3.1630,0.1535,0.5629
4849,-1.8651,-10.2639,0.6153,-3.0854,0.2112,0.5865
4856,-1.7885,-9.7971,0.5938,-2.9840,0.2563,0.6210
4865,-1.7286,-9.2512,0.7207,-2.8646,0.2987,0.6603
4873,-1.6137,-8.6838,0.7757,-2.7203,0.3316,0.7025
4881,-1.5155,-8.2097,0.8715,-2.5556,0.3592,0.7458
4889,-1.4724,-7.7381,0.8643,-2.3670,0.3962,0.7714
4897,-1.3001,-7.2760,0.9649,-2.1619,0.4339,0.7835
4904,-1.1013,-7.0126,1.0199,-1.9497,0.4748,0.7813
4913,-0.9529,-6.6655,1.0415,-1.7320,0.5275,0.7545
4921,-0.7925,-6.3255,0.9720,-1.5051,0.5832,0.7135
4929,-0.6560,-6.2034,0.8787,-1.2804,0.6604,0.6514
4937,-0.5698,-5.9185,0.9385,-1.0616,0.7417,0.5716
4944,-0.4645,-5.8035,0.8284,-0.8547,0.8347,0.4762
4953,-0.3065,-5.6814,0.7063,-0.6496,0.9328,0.3754
4961,-0.3472,-5.5737,0.6800,-0.4591,1.0297,0.2659
4969,-0.3328,-5.4971,0.6297,-0.2686,1.1314,0.1549
4977,-0.3376,-5.3582,0.6632,-0.0867,1.2248,0.0472
4985,-0.3783,-5.2984,0.5914,0.0879,1.3145,-0.0562
4993,-0.4860,-5.3319,0.5626,0.2603,1.3872,-0.1463
5001,-0.5986,-5.2577,0.5555,0.4202,1.4568,-0.2164
5009,-0.7087,-5.2888,0.4621,0.5681,1.5084,-0.2651
5017,-0.7781,-5.3582,0.5171,0.7124,1.5351,-0.3038
5025,-0.8595,-5.4013,0.4381,0.8463,1.5535,-0.3230
5032,-0.9074,-5.4971,0.4357,0.9747,1.5536,-0.3317
5041,-0.9744,-5.5474,0.5004,1.1020,1.5386,-0.3277
5049,-1.0702,-5.5522,0.4357,1.2264,1.5015,-0.3159
5057,-1.1708,-5.7533,0.6153,1.3448,1.4405,-0.2864
5065,-1.2258,-5.8993,0.5148,1.4705,1.3695,-0.2497
5073,-1.3192,-6.1770,0.6033,1.5926,1.2718,-0.1997
5081,-1.3455,-6.2153,0.5291,1.7050,1.1718,-0.1435
5089,-1.4198,-6.4643,0.5339,1.8253,1.0571,-0.0786
5097,-1.5060,-6.6367,0.5076,1.9348,0.9366,-0.0096
5105,-1.4748,-6.8450,0.5195,2.0396,0.8126,0.0606
5113,-1.5514,-7.1946,0.4501,2.1436,0.6848,0.1288
5121,-1.5610,-7.4795,0.4884,2.2412,0.5498,0.1899
5129,-1.6185,-7.7620,0.4166,2.3309,0.4178,0.2475
5137,-1.5874,-8.1355,0.3783,2.4223,0.2746,0.2936
5145,-1.6185,-8.4563,0.3615,2.4970,0.1403,0.3312
5153,-1.5802,-8.8178,0.2777,2.5599,0.0024,0.3563
5161,-1.6688,-9.2512,0.1915,2.6133,-0.1360,0.3741
5169,-1.6831,-9.6271,0.2227,2.6508,-0.2714,0.3873
5177,-1.7071,-10.0197,0.0192,2.6670,-0.4033,0.3914
5185,-1.7861,-10.3142,-0.0886,2.6682,-0.5280,0.3988
5193,-1.9130,-10.7260,-0.1867,2.6540,-0.6582,0.4022
5201,-1.9848,-11.0085,-0.2322,2.6195,-0.7794,0.4036
5209,-2.0877,-11.3342,-0.3065,2.5706,-0.9061,0.4153
5217,-2.0614,-11.6047,-0.4357,2.5026,-1.0312,0.4198
5225,-2.1237,-11.8800,-0.4046,2.4204,-1.1656,0.4337
5233,-2.1620,-12.0572,-0.5052,2.3278,-1.2914,0.4490
5241,-2.2122,-12.1865,-0.4812,2.2339,-1.4031,0.4623
5250,-2.2266,-12.3828,-0.5315,2.1365,-1.5159,0.4768
5257,-2.2577,-12.4594,-0.5315,2.0315,-1.6130,0.4864
5265,-2.2146,-12.7012,-0.4381,1.9348,-1.7225,0.4831
5273,-2.2434,-12.8257,-0.3807,1.8474,-1.8202,0.4739
5281,-2.1883,-13.0771,-0.3735,1.7729,-1.9117,0.4406
5289,-2.2051,-13.2064,-0.4118,1.6942,-1.9863,0.3922
5297,-2.0494,-13.5105,-0.2993,1.6602,-2.0550,0.3250
5305,-2.0183,-13.7810,-0.3280,1.5978,-2.1148,0.2407
5313,-2.0159,-14.0037,-0.2514,1.5741,-2.1645,0.1427
5321,-2.0901,-14.0947,-0.1197,1.5568,-2.2172,0.0421
5329,-2.1715,-14.3413,-0.0622,1.5525,-2.2607,-0.0562
5338,-2.1668,-14.4729,0.0934,1.5713,-2.3070,-0.1440
5345,-2.3343,-14.6358,0.1700,1.6106,-2.3482,-0.2262
5353,-2.3990,-14.7746,0.2610,1.6646,-2.3774,-0.2962
5361,-2.4708,-14.9374,0.2610,1.7010,-2.4059,-0.3567
5369,-2.5833,-15.1074,0.3759,1.7874,-2.4280,-0.4058
5378,-2.6695,-15.2798,0.3903,1.8751,-2.4464,-0.4511
5385,-2.7102,-15.5168,0.3304,1.9654,-2.4469,-0.4923
5393,-2.7366,-15.6365,0.3089,2.0636,-2.4457,-0.5285
5401,-2.8419,-15.8400,0.3879,2.1598,-2.4280,-0.5602
5409,-2.8443,-16.0723,0.2562,2.2612,-2.4096,-0.5935
5417,-2.8970,-16.2303,0.3304,2.3658,-2.3786,-0.6271
5425,-2.9018,-16.4697,0.2777,2.4678,-2.3455,-0.6670
5433,-2.8874,-16.5918,0.3160,2.5687,-2.3030,-0.7104
5441,-2.8635,-16.8624,0.2610,2.6721,-2.2487,-0.7580
5449,-2.9329,-17.0395,0.2131,2.7669,-2.1874,-0.8066
5457,-3.0023,-17.2167,0.1844,2.8481,-2.1202,-0.8569
5466,-3.0191,-17.4011,0.1365,2.9239,-2.0476,-0.9004
5473,-3.0406,-17.5663,-0.0072,2.9841,-1.9680,-0.9423
5481,-3.1532,-17.6860,-0.1245,3.0212,-1.8892,-0.9682
5489,-3.1747,-17.7746,-0.2179,3.0451,-1.8075,-0.9855
5497,-3.2633,-17.7626,-0.2274,3.0474,-1.7328,-0.9886
5506,-3.2154,-17.7386,-0.4286,3.0282,-1.6129,-0.9796
5513,-3.2513,-17.5639,-0.4812,2.9884,-1.5182,-0.9627
5521,-3.2801,-17.4489,-0.5650,2.9266,-1.4152,-0.9284
5529,-3.2322,-17.3077,-0.6656,2.8494,-1.3151,-0.8962
5537,-3.2274,-17.1257,-0.7422,2.7595,-1.2065,-0.8557
5545,-3.1532,-16.9773,-0.7111,2.6614,-1.0958,-0.8208
5554,-2.9736,-16.7187,-0.7757,2.5599,-0.9867,-0.7925
5561,-2.9497,-16.6014,-0.7925,2.4481,-0.8757,-0.7726
5569,-2.8970,-16.3237,-0.7542,2.3463,-0.7638,-0.7647
5577,-2.7629,-16.1848,-0.7638,2.2468,-0.6591,-0.7667
5585,-2.6647,-16.0364,-0.6871,2.1543,-0.5566,-0.7817
5594,-2.6145,-15.8903,-0.5435,2.0765,-0.4610,-0.8018
5601,-2.5163,-15.7108,-0.4573,2.0083,-0.3724,-0.8246
5609,-2.5450,-15.4905,-0.3112,1.9490,-0.2880,-0.8505
5617,-2.5474,-15.3732,-0.2945,1.9100,-0.2177,-0.8749
5625,-2.4684,-15.1912,-0.2777,1.8836,-0.1488,-0.8948
5634,-2.4134,-15.0188,-0.2035,1.8702,-0.0845,-0.9092
5642,-2.4469,-14.8488,0.0311,1.8690,-0.0313,-0.9229
5649,-2.4253,-14.6166,0.0479,1.8814,0.0148,-0.9289
5657,-2.4493,-14.4610,0.1269,1.9041,0.0500,-0.9249
5665,-2.5283,-14.2048,0.0503,1.9296,0.0831,-0.9228
5673,-2.4134,-14.0516,0.0982,1.9634,0.1075,-0.9089
5682,-2.3966,-13.8505,0.1317,1.9918,0.1256,-0.8929
5689,-2.3607,-13.6230,0.1724,2.0248,0.1422,-0.8779
5697,-2.3080,-13.4913,0.1676,2.0627,0.1565,-0.8625
5705,-2.3296,-13.2830,0.1389,2.0969,0.1651,-0.8444
5713,-2.2194,-13.0867,0.1389,2.1368,0.1675,-0.8260
5722,-2.2410,-12.8329,0.1030,2.1695,0.1644,-0.8064
5730,-2.2194,-12.6797,0.1484,2.2016,0.1585,-0.7894
5737,-2.2003,-12.3517,0.1532,2.2208,0.1515,-0.7653
5745,-2.1668,-12.1051,0.0694,2.2288,0.1432,-0.7410
5753,-2.1452,-11.8657,0.0144,2.2208,0.1271,-0.7120
5762,-2.1356,-11.6119,-0.1293,2.2034,0.1115,-0.6768
5770,-2.0351,-11.3533,-0.1676,2.1729,0.0918,-0.6446
5777,-2.0446,-11.1139,-0.1221,2.1300,0.0640,-0.6058
5785,-1.9561,-10.7955,-0.2251,2.0783,0.0418,-0.5636
5793,-1.9417,-10.5632,-0.2993,2.0227,0.0169,-0.5276
5801,-1.9369,-10.2496,-0.2586,1.9521,-0.0133,-0.4876
5810,-1.8507,-9.9335,-0.2251,1.8702,-0.0552,-0.4518
5818,-1.7789,-9.6726,-0.2298,1.7849,-0.0870,-0.4143
5825,-1.7549,-9.3518,-0.3304,1.7024,-0.1306,-0.3802
5833,-1.7095,-9.0740,-0.3663,1.5972,-0.1636,-0.3525
5841,-1.5850,-8.7676,-0.3998,1.5015,-0.2022,-0.3224
5850,-1.5083,-8.6024,-0.4118,1.3979,-0.2425,-0.3012
5858,-1.5155,-8.3582,-0.3903,1.2925,-0.2879,-0.2785
5865,-1.4940,-8.0996,-0.4788,1.1867,-0.3277,-0.2571
5873,-1.3671,-7.9272,-0.4238,1.0808,-0.3748,-0.2447
5881,-1.3862,-7.6854,-0.4549,0.9802,-0.4113,-0.2313
5890,-1.3144,-7.5513,-0.4381,0.8743,-0.4543,-0.2236
5898,-1.2929,-7.3694,-0.3950,0.7734,-0.4931,-0.2178
5906,-1.2163,-7.2592,-0.3759,0.6783,-0.5287,-0.2136
5913,-1.2091,-7.0366,-0.3926,0.5869,-0.5681,-0.2116
5921,-1.1899,-6.9791,-0.3639,0.4932,-0.6045,-0.2134
5929,-1.1564,-6.8929,-0.3184,0.4081,-0.6348,-0.2108
5938,-1.1851,-6.8785,-0.3567,0.3246,-0.6630,-0.2080
5946,-1.1875,-6.7636,-0.2969,0.2431,-0.6927,-0.2044
5953,-1.1181,-6.7349,-0.2849,0.1668,-0.7121,-0.1982
5961,-1.0894,-6.6870,-0.3017,0.0915,-0.7332,-0.1879
5969,-1.1540,-6.5649,-0.3328,0.0168,-0.7456,-0.1799
5978,-1.2186,-6.6559,-0.3232,-0.0562,-0.7514,-0.1644
5986,-1.1684,-6.5553,-0.2945,-0.1242,-0.7510,-0.1484
5994,-1.2450,-6.5481,-0.1915,-0.1948,-0.7492,-0.1264
6001,-1.2234,-6.5697,-0.3041,-0.2573,-0.7396,-0.0993
6009,-1.2881,-6.5984,-0.2634,-0.3228,-0.7205,-0.0699
6018,-1.2881,-6.5984,-0.2107,-0.3860,-0.7011,-0.0380
6026,-1.2905,-6.6391,-0.1915,-0.4466,-0.6720,-0.0016
6034,-1.2761,-6.6415,-0.2059,-0.5061,-0.6376,0.0421
6041,-1.2689,-6.6894,-0.2011,-0.5629,-0.5971,0.0823
6049,-1.3719,-6.6870,-0.2682,-0.6190,-0.5472,0.1266
6057,-1.3791,-6.7301,-0.2442,-0.6751,-0.4948,0.1723
6066,-1.3791,-6.8594,-0.1987,-0.7289,-0.4347,0.2173
6074,-1.3767,-6.8953,-0.2131,-0.7790,-0.3722,0.2622
6082,-1.3719,-6.9240,-0.2035,-0.8279,-0.3008,0.3118
6089,-1.3408,-7.1060,-0.2083,-0.8711,-0.2280,0.3532
6097,-1.4533,-7.1946,-0.2370,-0.9130,-0.1488,0.3969
6106,-1.4389,-7.3933,-0.1532,-0.9529,-0.0666,0.4361
6114,-1.3934,-7.4484,-0.2203,-0.9884,0.0149,0.4735
6122,-1.4557,-7.5872,-0.1221,-1.0223,0.1042,0.5084
6129,-1.4557,-7.8338,-0.1173,-1.0609,0.2010,0.5408
6137,-1.4916,-7.9871,-0.2083,-1.0958,0.2883,0.5698
6146,-1.5179,-8.2241,-0.1652,-1.1353,0.3857,0.6011
6154,-1.6137,-8.3941,-0.1556,-1.1724,0.4744,0.6294
6162,-1.6089,-8.5688,-0.0766,-1.2149,0.5641,0.6535
6170,-1.6376,-8.8657,-0.0551,-1.2548,0.6555,0.6812
6177,-1.7119,-9.1435,-0.1293,-1.2937,0.7328,0.7069
6185,-1.7262,-9.4403,-0.0551,-1.3395,0.8195,0.7310
6194,-1.8004,-9.6750,-0.0407,-1.3832,0.9022,0.7522
6202,-1.8483,-9.9838,-0.0622,-1.4296,0.9767,0.7698
6210,-1.8292,-10.2424,-0.0503,-1.4759,1.0564,0.7833
6217,-1.9058,-10.5225,-0.1293,-1.5251,1.1335,0.7977
6225,-1.9106,-10.8050,-0.0144,-1.5752,1.2067,0.8054
6234,-2.0016,-11.0923,-0.0144,-1.6193,1.2717,0.8122
6242,-2.0183,-11.3605,-0.0192,-1.6677,1.3347,0.8124
6250,-2.0279,-11.6119,0.0383,-1.7131,1.3977,0.8054
6258,-2.1165,-11.8393,0.0670,-1.7595,1.4514,0.8030
6265,-2.1835,-12.1290,0.2753,-1.7960,1.4971,0.7907
6274,-2.1572,-12.3014,0.1891,-1.8317,1.5346,0.7726
6282,-2.1045,-12.5528,0.1724,-1.8644,1.5704,0.7497
6290,-2.1045,-12.7180,0.3639,-1.8859,1.6080,0.7205
6298,-2.2027,-12.9431,0.3567,-1.9061,1.6418,0.6867
6305,-2.2362,-13.1202,0.3591,-1.9207,1.6690,0.6528
6313,-2.2146,-13.3596,0.3232,-1.9291,1.6864,0.6182
6322,-2.2194,-13.5536,0.4190,-1.9384,1.6991,0.5789
6330,-2.3176,-13.7619,0.4980,-1.9434,1.6940,0.5446
6338,-2.3583,-13.8672,0.5339,-1.9477,1.6871,0.5092
6345,-2.4301,-14.0659,0.5363,-1.9500,1.6839,0.4759
6353,-2.3750,-14.2192,0.5722,-1.9556,1.6722,0.4441
6362,-2.4708,-14.3939,0.5674,-1.9637,1.6463,0.4128
6370,-2.5115,-14.5160,0.4693,-1.9757,1.6157,0.3868
6378,-2.6264,-14.6741,0.5243,-1.9897,1.5769,0.3672
6386,-2.6360,-14.7890,0.5435,-2.0054,1.5344,0.3516
6393,-2.6911,-14.8919,0.5435,-2.0258,1.4919,0.3395
6402,-2.6839,-15.0356,0.5004,-2.0534,1.4436,0.3329
6410,-2.7581,-15.2152,0.5770,-2.0833,1.3941,0.3293
6418,-2.7461,-15.3349,0.5555,-2.1130,1.3396,0.3311
6426,-2.8443,-15.4498,0.5315,-2.1484,1.2842,0.3381
6433,-2.8108,-15.5743,0.5171,-2.1855,1.2184,0.3475
6441,-2.8371,-15.6724,0.4980,-2.2303,1.1623,0.3517
6450,-2.8443,-15.7491,0.4286,-2.2811,1.0936,0.3623
6458,-2.8706,-15.9717,0.3879,-2.3293,1.0261,0.3760
6466,-2.8587,-15.9334,0.5148,-2.3823,0.9625,0.3850
6474,-2.9161,-16.0220,0.4621,-2.4347,0.8888,0.3954
6481,-2.8467,-16.1800,0.5435,-2.4877,0.8216,0.4084
6490,-2.8611,-16.1944,0.5195,-2.5333,0.7501,0.4210
6498,-2.8970,-16.1968,0.5195,-2.5758,0.6844,0.4273
6506,-2.8611,-16.2231,0.5722,-2.6140,0.6165,0.4326
6514,-2.7892,-16.1369,0.6847,-2.6418,0.5457,0.4341
6521,-2.7031,-16.1776,0.6153,-2.6648,0.4770,0.4346
6530,-2.6624,-16.2040,0.7230,-2.6822,0.4085,0.4355
6538,-2.6719,-16.0531,0.6105,-2.6875,0.3480,0.4270
6546,-2.6815,-15.9813,0.7326,-2.6953,0.2894,0.4237
6554,-2.6695,-15.9047,0.7805,-2.6945,0.2293,0.4185
6562,-2.5618,-15.8089,0.7661,-2.6902,0.1771,0.4129
6569,-2.5929,-15.7036,0.7374,-2.6773,0.1311,0.4025
6578,-2.5594,-15.5503,0.7733,-2.6548,0.0918,0.3989
6586,-2.5594,-15.3756,0.6823,-2.6332,0.0640,0.3861
6594,-2.5115,-15.2080,0.7183,-2.6023,0.0396,0.3789
6602,-2.4565,-15.0523,0.7877,-2.5683,0.0183,0.3706
6609,-2.4110,-14.8417,0.7566,-2.5323,0.0027,0.3656
6618,-2.4349,-14.7028,0.6800,-2.4929,-0.0109,0.3605
6626,-2.4612,-14.5783,0.7638,-2.4553,-0.0218,0.3585
6634,-2.3176,-14.3748,0.6895,-2.4119,-0.0348,0.3551
6642,-2.3463,-14.1952,0.7230,-2.3666,-0.0329,0.3543
6650,-2.3152,-13.9821,0.6991,-2.3240,-0.0356,0.3541
6658,-2.2913,-13.9055,0.5818,-2.2772,-0.0222,0.3544
6666,-2.3200,-13.6446,0.5602,-2.2299,-0.0141,0.3549
6674,-2.3176,-13.4889,0.5507,-2.1821,0.0028,0.3559
6682,-2.2673,-13.3309,0.6105,-2.1382,0.0268,0.3592
6690,-2.2075,-13.1298,0.4980,-2.0920,0.0530,0.3685
6697,-2.1620,-12.9694,0.4717,-2.0447,0.0759,0.3742
6706,-2.2960,-12.7898,0.4860,-2.0058,0.1081,0.3845
6714,-2.0949,-12.5121,0.4980,-1.9653,0.1435,0.3972
6722,-2.1476,-12.3349,0.4549,-1.9280,0.1841,0.4054
6730,-2.0638,-12.1961,0.4142,-1.8900,0.2166,0.4162
6738,-2.0853,-11.9902,0.4405,-1.8562,0.2545,0.4261
6746,-2.0590,-11.7723,0.2897,-1.8267,0.2900,0.4357
6754,-2.0231,-11.5448,0.2969,-1.7978,0.3309,0.4457
6762,-2.0039,-11.3677,0.3089,-1.7672,0.3712,0.4511
6770,-1.8483,-11.1091,0.2945,-1.7356,0.4201,0.4571
6778,-1.8387,-10.9487,0.2155,-1.7076,0.4631,0.4602
6786,-1.8531,-10.7428,0.3112,-1.6751,0.5101,0.4584
6794,-1.7909,-10.4603,0.3017,-1.6445,0.5549,0.4576
6802,-1.7765,-10.2544,0.3041,-1.6117,0.6042,0.4491
6810,-1.6951,-10.0820,0.3017,-1.5736,0.6436,0.4450
6818,-1.5897,-9.8450,0.2825,-1.5316,0.6889,0.4318
6827,-1.5874,-9.6079,0.2466,-1.4897,0.7284,0.4166
6834,-1.5562,-9.4188,0.3831,-1.4486,0.7709,0.3982
6842,-1.4868,-9.2129,0.3112,-1.4033,0.8013,0.3810
6850,-1.4293,-9.0214,0.3328,-1.3562,0.8366,0.3593
6858,-1.4054,-8.8011,0.3184,-1.3009,0.8743,0.3385
6866,-1.3288,-8.6215,0.3376,-1.2464,0.9117,0.3148
6874,-1.3431,-8.5042,0.2466,-1.1908,0.9475,0.2912
6882,-1.3719,-8.2815,0.2825,-1.1298,0.9749,0.2675
6890,-1.2258,-8.0661,0.2921,-1.0717,0.9991,0.2447
6898,-1.2043,-7.9487,0.3639,-1.0046,1.0218,0.2216
6906,-1.2043,-7.8075,0.3041,-0.9377,1.0380,0.1977
6914,-1.2594,-7.7261,0.4046,-0.8660,1.0525,0.1777
6922,-1.2665,-7.5537,0.3735,-0.7934,1.0496,0.1535
6930,-1.1660,-7.4244,0.4142,-0.7194,1.0521,0.1358
6938,-1.1779,-7.3622,0.3711,-0.6450,1.0503,0.1178
6946,-1.2163,-7.3478,0.4405,-0.5654,1.0457,0.0983
6955,-1.1947,-7.1371,0.5076,-0.4839,1.0373,0.0803
6962,-1.1349,-7.1419,0.4597,-0.3998,1.0151,0.0710
6970,-1.1684,-7.0222,0.5219,-0.3147,0.9938,0.0560
6978,-1.1444,-6.9336,0.5100,-0.2244,0.9602,0.0525
6986,-1.1899,-6.9528,0.4453,-0.1355,0.9269,0.0458
6994,-1.1588,-6.8474,0.4693,-0.0506,0.8833,0.0401
7002,-1.2019,-6.8402,0.4884,0.0430,0.8388,0.0388
7010,-1.1803,-6.8498,0.5411,0.1368,0.7883,0.0349
7018,-1.2378,-6.8259,0.4860,0.2321,0.7284,0.0405
7026,-1.2977,-6.9336,0.5339,0.3341,0.6636,0.0430
7034,-1.2330,-6.9432,0.6057,0.4283,0.5977,0.0449
7043,-1.2498,-6.9935,0.5411,0.5293,0.5207,0.0526
7050,-1.2594,-7.0749,0.6225,0.6334,0.4371,0.0633
7058,-1.2809,-7.1443,0.5435,0.7356,0.3511,0.0719
7066,-1.3072,-7.2257,0.7111,0.8438,0.2563,0.0841
7074,-1.3288,-7.3334,0.5962,0.9473,0.1573,0.0953
7083,-1.3288,-7.5298,0.5507,1.0536,0.0569,0.1087
7090,-1.3288,-7.5920,0.6297,1.1517,-0.0390,0.1210
7098,-1.3384,-7.7764,0.4573,1.2529,-0.1283,0.1290
7106,-1.3503,-7.9775,0.5052,1.3432,-0.2185,0.1304
7114,-1.3384,-8.1547,0.4453,1.4358,-0.3086,0.1332
7122,-1.4365,-8.3989,0.5411,1.5156,-0.4026,0.1332
7131,-1.4365,-8.5736,0.4238,1.5973,-0.4907,0.1275
7138,-1.4557,-8.8945,0.4405,1.6811,-0.5802,0.1211
7146,-1.5179,-9.0788,0.4190,1.7484,-0.6652,0.1119
7154,-1.5227,-9.3565,0.2921,1.8082,-0.7521,0.0962
7162,-1.6041,-9.5864,0.2753,1.8634,-0.8348,0.0794
7171,-1.6161,-9.8497,0.1460,1.9163,-0.9132,0.0666
7178,-1.6496,-10.1801,0.1317,1.9605,-0.9902,0.0460
7186,-1.7262,-10.4818,0.1077,1.9955,-1.0649,0.0352
7194,-1.7909,-10.7308,0.0718,2.0250,-1.1458,0.0153
7202,-1.9154,-10.9176,0.0670,2.0422,-1.2129,-0.0060
7211,-1.9609,-11.1761,-0.1317,2.0523,-1.2824,-0.0229
7219,-1.9872,-11.3701,-0.0503,2.0560,-1.3434,-0.0402
7226,-2.0518,-11.5496,-0.1748,2.0400,-1.4047,-0.0537
7234,-2.0159,-11.7651,-0.2682,2.0211,-1.4587,-0.0683
7242,-2.0901,-11.9207,-0.3017,1.9950,-1.5076,-0.0819
7250,-2.0830,-12.0668,-0.2418,1.9648,-1.5496,-0.0955
7259,-2.0877,-12.1889,-0.3304,1.9229,-1.5957,-0.1107
7266,-2.1907,-12.3613,-0.2777,1.8830,-1.6174,-0.1262
7274,-2.1787,-12.5193,-0.3735,1.8371,-1.6461,-0.1418
7282,-2.1596,-12.6318,-0.3184,1.7905,-1.6406,-0.1624
7290,-2.1883,-12.7946,-0.2849,1.7499,-1.6598,-0.1907
7299,-2.1428,-12.8832,-0.3448,1.7138,-1.6879,-0.2114
7307,-2.2266,-13.0867,-0.3448,1.6659,-1.6944,-0.2360
7314,-2.2434,-13.2375,-0.3041,1.6301,-1.6752,-0.2617
7322,-2.2673,-13.3644,-0.1293,1.6076,-1.6879,-0.2867
7330,-2.3296,-13.5153,-0.1293,1.5942,-1.6799,-0.3140
7339,-2.3487,-13.6350,-0.1796,1.6086,-1.6514,-0.3379
7347,-2.3750,-13.7451,0.0192,1.6149,-1.6491,-0.3621
7354,-2.3846,-13.8720,0.0551,1.6581,-1.6759,-0.3878
7362,-2.4301,-14.0300,0.1101,1.6766,-1.6367,-0.4125
7370,-2.4421,-14.0899,0.0263,1.7303,-1.6300,-0.4383
7378,-2.4493,-14.2455,0.1149,1.7913,-1.6021,-0.4624
7387,-2.4828,-14.4131,0.1101,1.8455,-1.5894,-0.4900
7395,-2.5043,-14.5208,0.1556,1.9028,-1.5656,-0.5144
7402,-2.5546,-14.6525,0.2035,1.9657,-1.5380,-0.5380
7410,-2.5163,-14.7507,0.1556,2.0267,-1.5002,-0.5654
7418,-2.4972,-14.8560,0.1341,2.0837,-1.4609,-0.5965
7427,-2.5714,-14.9829,0.1724,2.1488,-1.4135,-0.6257
7435,-2.5786,-15.0859,0.0239,2.2078,-1.3642,-0.6576
7442,-2.6001,-15.1385,0.1221,2.2657,-1.3101,-0.6901
7450,-2.5666,-15.2008,0.1628,2.3252,-1.2586,-0.7253
7458,-2.5283,-15.3013,0.0527,2.3815,-1.1973,-0.7578
7467,-2.5522,-15.4211,0.0048,2.4260,-1.1385,-0.7878
7475,-2.6336,-15.5527,-0.0048,2.4693,-1.0853,-0.8156
7482,-2.6240,-15.5384,-0.0263,2.5002,-1.0272,-0.8424
7490,-2.6432,-15.5839,-0.1413,2.5175,-0.9707,-0.8660
7498,-2.6384,-15.5144,-0.1413,2.5254,-0.9120,-0.8799
7506,-2.6839,-15.4881,-0.2251,2.5237,-0.8491,-0.8891
7515,-2.6624,-15.4258,-0.3400,2.5087,-0.7926,-0.8933
7523,-2.6887,-15.3277,-0.3232,2.4816,-0.7376,-0.8925
7530,-2.6767,-15.2104,-0.3903,2.4489,-0.6757,-0.8849
7538,-2.6983,-15.0595,-0.3639,2.4012,-0.6187,-0.8763
7546,-2.6312,-14.9470,-0.4118,2.3438,-0.5640,-0.8637
7555,-2.6528,-14.7818,-0.5148,2.2840,-0.5076,-0.8460
7563,-2.6288,-14.5951,-0.5650,2.2203,-0.4549,-0.8282
7570,-2.5857,-14.4610,-0.4525,2.1518,-0.3974,-0.8083
7578,-2.5546,-14.2862,-0.4094,2.0819,-0.3451,-0.7897
7586,-2.4636,-14.1521,-0.3903,2.0130,-0.2991,-0.7711
7595,-2.4253,-13.9845,-0.4477,1.9504,-0.2586,-0.7574
7603,-2.4301,-13.7523,-0.2634,1.8965,-0.2213,-0.7430
7611,-2.4397,-13.6182,-0.3735,1.8438,-0.1896,-0.7309
7618,-2.3655,-13.4458,-0.2011,1.7964,-0.1635,-0.7196
7626,-2.3343,-13.3405,-0.2227,1.7632,-0.1447,-0.7052
7634,-2.3487,-13.1944,-0.0766,1.7321,-0.1299,-0.6900
7643,-2.2960,-13.0053,-0.1053,1.6926,-0.1188,-0.6760
7651,-2.2218,-12.8640,-0.1173,1.6682,-0.1130,-0.6594
7658,-2.2362,-12.7036,-0.1053,1.6679,-0.1146,-0.6459
7666,-2.2122,-12.6581,-0.0120,1.6487,-0.1132,-0.6301
7674,-2.1835,-12.4427,-0.0359,1.6228,-0.1176,-0.6147
7683,-2.2266,-12.2990,0.0670,1.6326,-0.1274,-0.5982
7691,-2.1021,-12.1051,0.0215,1.6258,-0.1415,-0.5821
7699,-2.1284,-11.9590,0.0287,1.6036,-0.1516,-0.5702
7706,-2.0542,-11.8082,0.0024,1.5992,-0.1657,-0.5560
7714,-2.0255,-11.6167,0.0263,1.5865,-0.1875,-0.5425
7723,-2.0806,-11.4706,0.1293,1.5743,-0.2010,-0.5284
7731,-1.9632,-11.2863,0.0646,1.5695,-0.2220,-0.5195
7739,-1.9249,-11.1259,0.1269,1.5564,-0.2429,-0.5115
7746,-1.8244,-10.9247,0.0527,1.5444,-0.2662,-0.5071
7754,-1.8866,-10.7691,0.0646,1.5318,-0.2870,-0.5047
7762,-1.8459,-10.5632,-0.0192,1.5152,-0.3128,-0.4970
7771,-1.7885,-10.3789,0.0000,1.4927,-0.3375,-0.4914
7779,-1.8148,-10.2161,-0.0383,1.4633,-0.3623,-0.4894
7787,-1.7382,-10.0556,-0.0072,1.4277,-0.3874,-0.4823
7794,-1.7334,-9.8689,-0.1867,1.3884,-0.4102,-0.4766
7802,-1.6616,-9.6534,-0.1772,1.3464,-0.4323,-0.4679
7811,-1.6759,-9.4906,-0.1820,1.2937,-0.4572,-0.4654
7819,-1.6209,-9.2560,-0.1508,1.2389,-0.4788,-0.4505
7827,-1.6137,-9.0716,-0.2298,1.1818,-0.4923,-0.4390
7834,-1.6113,-8.9064,-0.1604,1.1210,-0.5107,-0.4234
7842,-1.5490,-8.7556,-0.2466,1.0532,-0.5255,-0.4117
7851,-1.5730,-8.6143,-0.2346,0.9773,-0.5522,-0.3956
7859,-1.5395,-8.3893,-0.2849,0.9056,-0.5630,-0.3826
7867,-1.4964,-8.2911,-0.3543,0.8310,-0.5778,-0.3661
7875,-1.4365,-8.1355,-0.3543,0.7576,-0.5792,-0.3501
7882,-1.4724,-7.9128,-0.3376,0.6803,-0.5879,-0.3359
7890,-1.4006,-7.8697,-0.3687,0.5982,-0.5945,-0.3180
7899,-1.4437,-7.7069,-0.3352,0.5231,-0.5995,-0.3006
7907,-1.3743,-7.6064,-0.3065,0.4487,-0.5950,-0.2799
7915,-1.3647,-7.5585,-0.3136,0.3726,-0.5950,-0.2593
7922,-1.3838,-7.3837,-0.2921,0.3004,-0.5858,-0.2386
7930,-1.3479,-7.4053,-0.3328,0.2264,-0.5844,-0.2157
7939,-1.3336,-7.3526,-0.2562,0.1579,-0.5746,-0.1895
7947,-1.3384,-7.2999,-0.3543,0.0870,-0.5641,-0.1641
7955,-1.3599,-7.1898,-0.3184,0.0192,-0.5411,-0.1391
7963,-1.3312,-7.2329,-0.3472,-0.0466,-0.5217,-0.1091
7970,-1.3671,-7.2281,-0.3352,-0.1092,-0.4938,-0.0807
7979,-1.3647,-7.2305,-0.2945,-0.1749,-0.4614,-0.0469
7987,-1.4126,-7.2137,-0.2753,-0.2395,-0.4259,-0.0139
7995,-1.4126,-7.2808,-0.2729,-0.2992,-0.3886,0.0212
8003,-1.4916,-7.2496,-0.2490,-0.3615,-0.3495,0.0584
8010,-1.4413,-7.3694,-0.3112,-0.4221,-0.3072,0.1006
8018,-1.4581,-7.4316,-0.2658,-0.4823,-0.2565,0.1446
8027,-1.4006,-7.5106,-0.3184,-0.5368,-0.2014,0.1856
8035,-1.4653,-7.5633,-0.3208,-0.5931,-0.1450,0.2288
8043,-1.4365,-7.6136,-0.1987,-0.6472,-0.0850,0.2709
8050,-1.4629,-7.7452,-0.2227,-0.7011,-0.0226,0.3134
8058,-1.5060,-7.7548,-0.2274,-0.7509,0.0358,0.3544
8067,-1.4748,-7.8721,-0.2131,-0.8009,0.1022,0.3922
8075,-1.5036,-8.0565,-0.1484,-0.8434,0.1616,0.4238
8083,-1.5347,-8.1068,-0.1413,-0.8885,0.2216,0.4571
8091,-1.5299,-8.2720,-0.1891,-0.9280,0.2882,0.4887
8098,-1.4988,-8.4013,-0.1197,-0.9653,0.3535,0.5124
8107,-1.5347,-8.5641,-0.1221,-1.0010,0.4146,0.5339
8115,-1.5155,-8.6646,-0.1580,-1.0303,0.4768,0.5533
8123,-1.5538,-8.8801,-0.0886,-1.0649,0.5391,0.5673
8131,-1.5874,-9.0716,-0.0982,-1.0966,0.5998,0.5766
8138,-1.6233,-9.2009,0.0000,-1.1243,0.6554,0.5886
8146,-1.6616,-9.3589,-0.0718,-1.1583,0.7128,0.5971
8155,-1.6544,-9.5672,0.0311,-1.1892,0.7689,0.6053
8163,-1.6855,-9.7492,0.0527,-1.2168,0.8244,0.6119
8171,-1.7166,-9.8857,0.0359,-1.2478,0.8771,0.6157
8179,-1.7358,-10.0844,0.0263,-1.2738,0.9246,0.6193
8186,-1.7669,-10.2735,0.0718,-1.2983,0.9759,0.6183
8195,-1.8435,-10.5058,0.1221,-1.3270,1.0195,0.6254
8203,-1.9058,-10.7117,0.1269,-1.3519,1.0623,0.6250
8211,-1.9106,-10.9774,0.1149,-1.3801,1.1020,0.6249
8219,-1.8723,-11.1211,0.2155,-1.3995,1.1399,0.6235
8226,-1.9178,-11.2958,0.1508,-1.4261,1.1735,0.6167
8235,-1.9465,-11.4419,0.0910,-1.4518,1.2037,0.6106
8243,-2.0255,-11.5879,0.1676,-1.4727,1.2295,0.5995
8251,-2.0255,-11.8010,0.2059,-1.4965,1.2534,0.5910
8259,-2.0710,-11.9159,0.3184,-1.5238,1.2686,0.5830
8267,-2.1261,-12.1075,0.1796,-1.5457,1.2826,0.5725
8274,-2.1165,-12.2607,0.2753,-1.5651,1.2922,0.5624
8283,-2.1500,-12.4475,0.3232,-1.5819,1.2971,0.5514
8291,-2.2170,-12.5265,0.2490,-1.6034,1.3037,0.5405
8299,-2.1572,-12.6988,0.3352,-1.6234,1.3027,0.5280
8307,-2.2098,-12.7683,0.3232,-1.6429,1.3017,0.5167
8314,-2.2841,-12.9790,0.3567,-1.6752,1.2845,0.5085
8323,-2.2697,-13.0819,0.2825,-1.7006,1.2750,0.4959
8331,-2.2889,-13.2208,0.2849,-1.7329,1.2684,0.4920
8339,-2.3607,-13.3261,0.2945,-1.7646,1.2541,0.4862
8347,-2.3535,-13.4195,0.2753,-1.7998,1.2312,0.4851
8355,-2.3966,-13.5608,0.2849,-1.8347,1.2075,0.4864
8363,-2.4660,-13.7020,0.2682,-1.8744,1.1759,0.4892
8371,-2.4205,-13.7571,0.3352,-1.9095,1.1447,0.4920
8379,-2.4636,-13.9175,0.3472,-1.9422,1.1150,0.4940
8387,-2.4517,-13.9821,0.3807,-1.9807,1.0789,0.4940
8395,-2.5067,-14.1018,0.3615,-2.0101,1.0391,0.4960
8402,-2.5690,-14.1785,0.3855,-2.0412,0.9998,0.4943
8411,-2.4924,-14.2670,0.4046,-2.0753,0.9603,0.4960
8419,-2.4972,-14.3365,0.4381,-2.1056,0.9214,0.4908
8427,-2.4780,-14.3604,0.4405,-2.1310,0.8768,0.4912
8435,-2.5402,-14.4897,0.4741,-2.1543,0.8295,0.4927
8443,-2.4876,-14.5184,0.4764,-2.1757,0.7754,0.4923
8451,-2.5857,-14.5567,0.5028,-2.1934,0.7152,0.4919
8459,-2.5115,-14.5903,0.5195,-2.2144,0.6608,0.4903
8467,-2.4972,-14.5879,0.4980,-2.2263,0.6085,0.4890
8475,-2.4397,-14.6022,0.6321,-2.2323,0.5608,0.4816
8483,-2.4660,-14.5783,0.5387,-2.2448,0.5137,0.4796
8491,-2.4804,-14.5160,0.5698,-2.2459,0.4616,0.4778
8499,-2.4493,-14.5160,0.6369,-2.2425,0.4146,0.4762
8507,-2.4157,-14.4825,0.5507,-2.2368,0.3645,0.4788
8515,-2.4421,-14.4610,0.5650,-2.2323,0.3259,0.4768
8523,-2.4565,-14.3820,0.5483,-2.2207,0.2823,0.4724
8531,-2.4349,-14.3101,0.5483,-2.2035,0.2506,0.4692
8539,-2.3894,-14.2455,0.5914,-2.1865,0.2256,0.4658
8547,-2.3655,-14.0324,0.5243,-2.1638,0.2026,0.4630
8555,-2.3487,-14.0157,0.5962,-2.1474,0.1851,0.4506
8563,-2.3679,-13.8912,0.5986,-2.1274,0.1767,0.4493
8571,-2.3248,-13.7619,0.6608,-2.1003,0.1568,0.4461
8579,-2.3080,-13.6326,0.5483,-2.0768,0.1503,0.4421
8587,-2.2769,-13.5033,0.5291,-2.0498,0.1367,0.4385
8595,-2.2769,-13.3980,0.4884,-2.0260,0.1274,0.4343
8603,-2.2482,-13.2351,0.4836,-1.9999,0.1295,0.4339
8611,-2.2266,-13.1274,0.5052,-1.9773,0.1303,0.4297
8620,-2.1835,-12.9718,0.3472,-1.9506,0.1403,0.4298
8627,-2.1261,-12.8353,0.3256,-1.9279,0.1503,0.4258
8635,-2.1284,-12.6605,0.4381,-1.9027,0.1592,0.4239
8643,-2.1093,-12.5600,0.3903,-1.8787,0.1693,0.4299
8651,-2.1141,-12.4115,0.3831,-1.8522,0.1728,0.4326
8659,-2.0734,-12.2487,0.3759,-1.8335,0.1868,0.4346
8667,-2.0423,-12.1171,0.4118,-1.8029,0.1966,0.4375
8675,-2.0423,-11.9614,0.4142,-1.7836,0.2117,0.4418
8683,-2.0279,-11.8130,0.4142,-1.7524,0.2304,0.4442
8691,-1.9824,-11.6382,0.3352,-1.7339,0.2531,0.4418
8699,-1.9393,-11.5089,0.3232,-1.6984,0.2817,0.4418
8708,-1.9130,-11.3557,0.3376,-1.6677,0.3091,0.4397
8715,-1.8723,-11.2336,0.3304,-1.6350,0.3359,0.4421
8723,-1.9130,-11.0373,0.3256,-1.6030,0.3568,0.4402
8731,-1.8411,-10.8960,0.2658,-1.5695,0.3820,0.4377
8739,-1.8316,-10.7332,0.2969,-1.5330,0.4033,0.4361
8748,-1.8100,-10.5536,0.2945,-1.4951,0.4281,0.4314
8755,-1.7166,-10.3621,0.3855,-1.4617,0.4455,0.4261
8763,-1.7047,-10.1754,0.2634,-1.4180,0.4671,0.4167
8771,-1.6999,-10.1394,0.3089,-1.3768,0.4924,0.4084
8779,-1.5754,-9.9072,0.3400,-1.3299,0.5227,0.3990
8787,-1.5299,-9.7109,0.3950,-1.2810,0.5444,0.3872
8795,-1.5155,-9.5960,0.2682,-1.2363,0.5716,0.3768
8803,-1.5371,-9.4236,0.3089,-1.1820,0.5953,0.3644
8811,-1.5012,-9.2703,0.3136,-1.1310,0.6101,0.3508
8819,-1.4844,-9.1219,0.3304,-1.0824,0.6305,0.3325
8827,-1.4413,-8.9423,0.3136,-1.0287,0.6423,0.3227
8836,-1.4126,-8.8011,0.2945,-0.9727,0.6578,0.3059
8843,-1.4006,-8.6431,0.3400,-0.9140,0.6691,0.2868
8851,-1.3623,-8.5449,0.3472,-0.8567,0.6764,0.2698
8859,-1.3479,-8.3917,0.4932,-0.7957,0.6825,0.2502
8867,-1.3120,-8.2863,0.4022,-0.7249,0.6991,0.2292
8876,-1.2474,-8.1499,0.3448,-0.6615,0.7023,0.2117
8883,-1.3599,-8.0948,0.3903,-0.5982,0.7032,0.1943
8891,-1.3024,-8.0756,0.3879,-0.5319,0.6924,0.1779
8899,-1.2641,-7.9942,0.4334,-0.4644,0.6840,0.1596
8907,-1.2833,-7.8769,0.4046,-0.3952,0.6792,0.1419
8915,-1.2594,-7.7764,0.4070,-0.3265,0.6658,0.1279
8924,-1.2210,-7.7428,0.4645,-0.2561,0.6550,0.1119
8931,-1.2689,-7.8123,0.3112,-0.1841,0.6380,0.0939
8939,-1.2785,-7.6854,0.3998,-0.1087,0.6203,0.0871
8947,-1.2186,-7.7165,0.4262,-0.0378,0.6029,0.0718
8955,-1.2354,-7.6926,0.3184,0.0326,0.5760,0.0608
8964,-1.2761,-7.6686,0.4501,0.1082,0.5449,0.0549
8971,-1.2210,-7.7045,0.4310,0.1800,0.5056,0.0474
8979,-1.2737,-7.7237,0.3448,0.2521,0.4658,0.0441
8987,-1.2761,-7.7835,0.3089,0.3210,0.4195,0.0369
8995,-1.3168,-7.8195,0.2897,0.3949,0.3696,0.0362
9004,-1.3024,-7.8554,0.3855,0.4690,0.3171,0.0286
9012,-1.3623,-7.9033,0.4381,0.5432,0.2583,0.0326
9019,-1.3767,-7.9895,0.4334,0.6207,0.1965,0.0317
9027,-1.3838,-8.0756,0.4477,0.6996,0.1223,0.0352
9035,-1.4222,-8.1499,0.4669,0.7719,0.0532,0.0418
9043,-1.3815,-8.2432,0.4166,0.8450,-0.0176,0.0405
9052,-1.4509,-8.2839,0.4142,0.9129,-0.0865,0.0417
9059,-1.4461,-8.4803,0.4214,0.9858,-0.1540,0.0416
9067,-1.4317,-8.6095,0.3256,1.0445,-0.2250,0.0381
9075,-1.4724,-8.6311,0.2945,1.1070,-0.2903,0.0328
9083,-1.5155,-8.8585,0.3232,1.1596,-0.3561,0.0260
9092,-1.5131,-8.9399,0.2538,1.2156,-0.4214,0.0141
9100,-1.5730,-9.1195,0.2586,1.2622,-0.4832,0.0024
9107,-1.5706,-9.2656,0.2011,1.3097,-0.5445,-0.0117
9115,-1.5538,-9.4212,0.1963,1.3554,-0.6103,-0.0246
9123,-1.6209,-9.5600,0.2179,1.3953,-0.6708,-0.0376
9132,-1.5850,-9.7875,0.1556,1.4356,-0.7325,-0.0566
9140,-1.7358,-9.9000,0.1772,1.4754,-0.7897,-0.0735
9147,-1.7430,-10.1442,0.1724,1.5094,-0.8423,-0.0881
9155,-1.6927,-10.2951,0.1437,1.5402,-0.9013,-0.1071
9163,-1.7286,-10.4220,0.0527,1.5605,-0.9530,-0.1246
9171,-1.7957,-10.6757,0.1700,1.5901,-0.9970,-0.1430
9180,-1.8244,-10.8409,0.0168,1.6061,-1.0440,-0.1572
9188,-1.8411,-10.9391,-0.0455,1.6145,-1.0936,-0.1727
9195,-1.9058,-11.1402,0.0192,1.6301,-1.1381,-0.1880
9203,-1.9130,-11.2671,0.0048,1.6406,-1.1768,-0.2068
9211,-1.9680,-11.5089,-0.1030,1.6327,-1.2099,-0.2204
9220,-1.9920,-11.5831,-0.0838,1.6387,-1.2432,-0.2369
9228,-2.0016,-11.7172,-0.0551,1.6421,-1.2709,-0.2515
9235,-2.0183,-11.8609,-0.0311,1.6261,-1.2909,-0.2674
9243,-2.0686,-12.0261,-0.0335,1.6261,-1.3131,-0.2832
9251,-2.0853,-12.1386,-0.2227,1.6245,-1.3287,-0.3034
9260,-2.0925,-12.2894,-0.1245,1.6052,-1.3403,-0.3170
9268,-2.1356,-12.4115,-0.0766,1.6053,-1.3487,-0.3396
9276,-2.1548,-12.5217,-0.1053,1.5957,-1.3548,-0.3561
9283,-2.1811,-12.6222,-0.1077,1.5941,-1.3592,-0.3720
9291,-2.2266,-12.7946,-0.1413,1.5956,-1.3611,-0.3896
9299,-2.2625,-12.7946,-0.1293,1.6078,-1.3555,-0.4090
9308,-2.2386,-12.9311,-0.0431,1.6073,-1.3483,-0.4277
9316,-2.2051,-13.0580,-0.0551,1.6289,-1.3375,-0.4470
9323,-2.2601,-13.1202,0.0000,1.6459,-1.3283,-0.4670
9331,-2.2146,-13.1609,-0.0168,1.6775,-1.3142,-0.4855
9339,-2.2960,-13.3836,0.0120,1.6856,-1.2969,-0.5036
9348,-2.3774,-13.4075,0.1053,1.7288,-1.2818,-0.5216
9356,-2.3296,-13.4650,0.0551,1.7583,-1.2598,-0.5411
9364,-2.3128,-13.5368,-0.0527,1.7936,-1.2316,-0.5604
9371,-2.3272,-13.6254,0.0096,1.8231,-1.2023,-0.5806
9379,-2.3511,-13.7212,0.0168,1.8563,-1.1684,-0.6010
9388,-2.4014,-13.7379,0.0287,1.8831,-1.1357,-0.6206
9396,-2.2865,-13.7691,-0.0694,1.9083,-1.0978,-0.6386
9404,-2.3703,-13.8313,0.0359,1.9344,-1.0600,-0.6611
9411,-2.3391,-13.8720,-0.0551,1.9582,-1.0158,-0.6815
9419,-2.4325,-13.9462,-0.0263,1.9760,-0.9783,-0.6976
9427,-2.3870,-13.9366,-0.1030,1.9937,-0.9342,-0.7172
9436,-2.3272,-13.9702,-0.0527,2.0090,-0.8925,-0.7297
9444,-2.3846,-13.9989,-0.1460,2.0182,-0.8480,-0.7449
9452,-2.4014,-14.0731,-0.0934,2.0279,-0.8054,-0.7550
9459,-2.3631,-14.0468,-0.0766,2.0283,-0.7642,-0.7645
9467,-2.4636,-14.0228,-0.2011,2.0255,-0.7149,-0.7734
9476,-2.4205,-13.9031,-0.1676,2.0150,-0.6828,-0.7757
9484,-2.4038,-13.8720,-0.1676,2.0039,-0.6460,-0.7807
9492,-2.4110,-13.8744,-0.1867,1.9894,-0.6058,-0.7791
9499,-2.3870,-13.7906,-0.2322,1.9677,-0.5682,-0.7747
9507,-2.4684,-13.6877,-0.2274,1.9432,-0.5296,-0.7741
9516,-2.3918,-13.6062,-0.3017,1.9144,-0.4976,-0.7689
9524,-2.3750,-13.4650,-0.2658,1.8844,-0.4616,-0.7600
9532,-2.3894,-13.3549,-0.2682,1.8538,-0.4290,-0.7534
9540,-2.3559,-13.3477,-0.2370,1.8154,-0.3968,-0.7436
9547,-2.3104,-13.1585,-0.2011,1.7784,-0.3677,-0.7341
9555,-2.2984,-13.0556,-0.2490,1.7469,-0.3420,-0.7242
9564,-2.3056,-12.9407,-0.2011,1.7136,-0.3154,-0.7145
9572,-2.2338,-12.7563,-0.2418,1.6693,-0.2946,-0.7049
9580,-2.2625,-12.6174,-0.1844,1.6538,-0.2690,-0.6935
9587,-2.2098,-12.4977,-0.2059,1.6142,-0.2567,-0.6860
9595,-2.1811,-12.3852,-0.1389,1.5973,-0.2437,-0.6753
9604,-2.1404,-12.2870,-0.1413,1.5656,-0.2334,-0.6624
9612,-2.1189,-12.1051,-0.1149,1.5408,-0.2270,-0.6559
9620,-2.1787,-11.9878,-0.0934,1.5132,-0.2197,-0.6447
9627,-2.1117,-11.8657,-0.0910,1.4905,-0.2154,-0.6342
9635,-2.0734,-11.6861,-0.1269,1.4683,-0.2128,-0.6227
9644,-1.9944,-11.5951,-0.0527,1.4458,-0.2112,-0.6114
9652,-2.0087,-11.4371,-0.1030,1.4230,-0.2170,-0.6006
9660,-2.0662,-11.2839,-0.0886,1.3993,-0.2204,-0.5879
9668,-1.9680,-11.2025,-0.0886,1.3751,-0.2262,-0.5754
9675,-1.9249,-11.0852,-0.0599,1.3508,-0.2342,-0.5612
9683,-1.9728,-10.8577,-0.1293,1.3255,-0.2473,-0.5492
9692,-1.9513,-10.8242,-0.0958,1.2994,-0.2570,-0.5368
9700,-1.8962,-10.6781,-0.0646,1.2744,-0.2697,-0.5296
9708,-1.8794,-10.5489,-0.0527,1.2465,-0.2783,-0.5181
9715,-1.7980,-10.3884,-0.1460,1.2188,-0.2939,-0.5067
9723,-1.7621,-10.2855,-0.0599,1.1888,-0.3059,-0.4970
9732,-1.7909,-10.0987,-0.1269,1.1576,-0.3223,-0.4868
9740,-1.7645,-9.9527,0.0239,1.1291,-0.3363,-0.4723
9748,-1.7837,-9.8066,-0.1006,1.0956,-0.3515,-0.4624
9756,-1.7166,-9.7396,-0.1269,1.0595,-0.3657,-0.4514
9763,-1.6640,-9.5792,-0.0239,1.0223,-0.3778,-0.4403
9772,-1.6568,-9.3805,-0.1030,0.9826,-0.3953,-0.4259
9780,-1.6520,-9.3422,-0.1724,0.9395,-0.4060,-0.4130
9788,-1.6257,-9.1219,-0.0838,0.8930,-0.4121,-0.4000
9796,-1.5778,-8.9902,-0.1293,0.8439,-0.4231,-0.3872
9803,-1.5467,-8.8969,-0.2346,0.7949,-0.4323,-0.3724
9811,-1.5299,-8.7676,-0.1604,0.7426,-0.4357,-0.3571
9820,-1.5347,-8.6814,-0.0958,0.6875,-0.4410,-0.3435
9828,-1.5371,-8.5138,-0.2490,0.6328,-0.4490,-0.3275
9836,-1.5155,-8.4348,-0.1772,0.5802,-0.4430,-0.3091
9844,-1.5395,-8.3270,-0.2610,0.5252,-0.4437,-0.2906
9851,-1.4724,-8.2672,-0.1389,0.4676,-0.4454,-0.2719
9860,-1.4964,-8.1499,-0.2849,0.4068,-0.4486,-0.2526
9868,-1.4461,-8.1211,-0.2658,0.3507,-0.4427,-0.2329
9876,-1.4748,-8.0373,-0.2825,0.2931,-0.4326,-0.2122
9884,-1.4293,-7.9918,-0.2849,0.2361,-0.4209,-0.1939
9891,-1.4533,-7.9440,-0.2155,0.1775,-0.4104,-0.1772
9900,-1.3886,-7.9296,-0.2155,0.1199,-0.3918,-0.1516
9908,-1.4533,-7.8769,-0.1891,0.0640,-0.3784,-0.1316
9916,-1.4509,-7.8195,-0.3065,0.0100,-0.3589,-0.1054
9924,-1.4533,-7.7931,-0.1891,-0.0482,-0.3401,-0.0837
9932,-1.4365,-7.8458,-0.2490,-0.1066,-0.3184,-0.0544
9939,-1.4198,-7.8554,-0.2346,-0.1592,-0.2899,-0.0234
9948,-1.4198,-7.8482,-0.2658,-0.2098,-0.2619,0.0021
9956,-1.5179,-7.9176,-0.2442,-0.2633,-0.2250,0.0305
9964,-1.4724,-7.8721,-0.3184,-0.3115,-0.1888,0.0630
9972,-1.5083,-7.9607,-0.2825,-0.3653,-0.1474,0.0941
9979,-1.4940,-8.0325,-0.2562,-0.4169,-0.1046,0.1255
9988,-1.5251,-8.1068,-0.2059,-0.4688,-0.0598,0.1591
9996,-1.5874,-8.1092,-0.2490,-0.5237,-0.0091,0.1976
10004,-1.5490,-8.2480,-0.2658,-0.5729,0.0353,0.2317
10012,-1.5275,-8.2600,-0.1053,-0.6159,0.0879,0.2686
10020,-1.5921,-8.3845,-0.1652,-0.6648,0.1362,0.3022
10028,-1.5969,-8.4539,-0.1652,-0.7079,0.1891,0.3331
10036,-1.6089,-8.5377,-0.1293,-0.7470,0.2422,0.3645
10044,-1.5419,-8.6479,-0.1245,-0.7833,0.2984,0.3906
10052,-1.5945,-8.7700,-0.0599,-0.8242,0.3484,0.4142
10060,-1.6209,-8.8753,-0.1293,-0.8601,0.4002,0.4377
10067,-1.6400,-8.9160,-0.0479,-0.8960,0.4506,0.4553
10076,-1.6640,-9.1267,-0.0599,-0.9260,0.5016,0.4710
10084,-1.6352,-9.1674,-0.1365,-0.9594,0.5534,0.4890
10092,-1.6520,-9.3302,-0.0287,-0.9863,0.6043,0.5044
10100,-1.6951,-9.4523,-0.0383,-1.0152,0.6524,0.5156
10108,-1.6951,-9.6151,0.0144,-1.0424,0.6979,0.5311
10116,-1.7214,-9.7229,0.0431,-1.0657,0.7376,0.5404
10124,-1.7286,-9.8857,0.0407,-1.0889,0.7743,0.5502
10132,-1.7549,-10.0437,0.0096,-1.1145,0.8122,0.5553
10140,-1.8220,-10.2280,0.0096,-1.1375,0.8517,0.5629
10148,-1.8411,-10.2496,0.0622,-1.1624,0.8828,0.5670
10156,-1.8340,-10.4674,0.1532,-1.1874,0.9086,0.5692
10164,-1.8316,-10.5728,0.1700,-1.2088,0.9397,0.5684
10172,-1.8316,-10.7883,0.0838,-1.2345,0.9615,0.5696
10180,-1.8842,-10.9247,0.1221,-1.2556,0.9850,0.5681
10188,-2.0016,-11.0612,0.2131,-1.2786,1.0030,0.5642
10195,-2.0016,-11.1618,0.1963,-1.2955,1.0166,0.5612
10204,-1.9369,-11.2958,0.1149,-1.3187,1.0229,0.5608
10212,-2.0231,-11.5137,0.1293,-1.3390,1.0352,0.5570
10220,-2.0303,-11.6454,0.2586,-1.3630,1.0379,0.5528
10228,-2.0638,-11.6981,0.3089,-1.3799,1.0403,0.5501
10236,-2.0734,-11.8345,0.1293,-1.4031,1.0423,0.5438
10244,-2.0758,-11.9926,0.1820,-1.4217,1.0416,0.5401
10252,-2.0853,-12.1051,0.1939,-1.4474,1.0369,0.5327
10260,-2.0949,-12.1697,0.2107,-1.4698,1.0304,0.5319
10268,-2.1237,-12.2751,0.2610,-1.4978,1.0163,0.5299
10276,-2.1787,-12.3876,0.1987,-1.5214,1.0066,0.5276
10284,-2.1883,-12.4618,0.2370,-1.5477,0.9930,0.5287
10292,-2.2194,-12.6294,0.2777,-1.5748,0.9774,0.5288
10300,-2.1883,-12.7060,0.2586,-1.6025,0.9650,0.5311
10308,-2.2697,-12.8449,0.3089,-1.6325,0.9473,0.5305
10316,-2.2194,-12.9263,0.2801,-1.6585,0.9260,0.5307
10324,-2.3032,-12.9670,0.2658,-1.6903,0.9032,0.5323
10332,-2.2386,-12.9766,0.3112,-1.7201,0.8780,0.5345
10340,-2.3008,-13.0556,0.2538,-1.7571,0.8519,0.5419
10348,-2.3200,-13.1442,0.2322,-1.7729,0.8358,0.5424
10356,-2.3439,-13.1705,0.3496,-1.8030,0.8148,0.5452
10364,-2.3224,-13.2280,0.3424,-1.8267,0.7891,0.5441
10372,-2.3607,-13.2351,0.3304,-1.8438,0.7600,0.5448
10380,-2.4086,-13.2687,0.4334,-1.8620,0.7324,0.5457
10388,-2.2913,-13.4291,0.3831,-1.8755,0.7021,0.5440
10396,-2.3774,-13.3812,0.3926,-1.8903,0.6728,0.5452
10404,-2.3080,-13.4363,0.4094,-1.9035,0.6418,0.5480
10413,-2.3272,-13.4913,0.4717,-1.9115,0.6147,0.5450
10420,-2.2984,-13.4434,0.3926,-1.9201,0.5809,0.5385
10428,-2.3535,-13.4841,0.3567,-1.9251,0.5566,0.5384
10436,-2.3846,-13.4841,0.4357,-1.9323,0.5181,0.5373
10444,-2.2960,-13.4434,0.4836,-1.9309,0.4835,0.5388
10452,-2.2482,-13.4482,0.4764,-1.9313,0.4529,0.5377
10460,-2.2984,-13.3716,0.4214,-1.9257,0.4110,0.5325
10468,-2.3056,-13.3932,0.4860,-1.9204,0.3732,0.5309
10476,-2.2601,-13.3022,0.4405,-1.9099,0.3420,0.5280
10484,-2.2865,-13.2663,0.4597,-1.8968,0.3171,0.5240
10492,-2.2290,-13.2064,0.3855,-1.8847,0.2922,0.5225
10501,-2.2098,-13.1322,0.4070,-1.8699,0.2706,0.5203
10508,-2.1261,-13.0460,0.4597,-1.8543,0.2485,0.5177
10516,-2.2194,-12.9311,0.4214,-1.8341,0.2334,0.5119
10524,-2.1668,-12.8760,0.3783,-1.8177,0.2126,0.5071
10532,-2.1596,-12.7922,0.4262,-1.7930,0.2006,0.5052
10541,-2.1452,-12.6677,0.4525,-1.7798,0.1851,0.4998
10548,-2.0806,-12.6174,0.4118,-1.7555,0.1776,0.4964
10556,-2.0877,-12.4690,0.5435,-1.7400,0.1696,0.4904
10564,-2.0877,-12.3277,0.4717,-1.7172,0.1704,0.4872
10572,-1.9872,-12.2416,0.3232,-1.6902,0.1621,0.4827
10580,-2.0303,-12.1745,0.3950,-1.6637,0.1640,0.4787
10589,-2.0135,-11.9590,0.3926,-1.6417,0.1679,0.4764
10596,-2.0399,-11.9016,0.2897,-1.6194,0.1695,0.4738
10604,-2.0255,-11.7938,0.3879,-1.5996,0.1739,0.4708
10612,-1.9106,-11.6047,0.3496,-1.5752,0.1787,0.4715
10620,-1.9393,-11.5137,0.2921,-1.5497,0.1867,0.4639
10629,-1.9249,-11.3270,0.3256,-1.5239,0.1992,0.4615
10636,-1.8794,-11.2312,0.2921,-1.5014,0.2057,0.4576
10644,-1.8364,-11.2097,0.3807,-1.4739,0.2213,0.4510
10652,-1.8004,-11.0373,0.2753,-1.4452,0.2425,0.4486
10660,-1.7861,-10.8769,0.3352,-1.4150,0.2630,0.4455
10669,-1.8603,-10.7260,0.3232,-1.3852,0.2797,0.4410
10677,-1.8028,-10.6231,0.2777,-1.3572,0.2975,0.4366
10684,-1.8028,-10.5058,0.3543,-1.3235,0.3067,0.4345
10692,-1.7166,-10.3430,0.3424,-1.2935,0.3291,0.4303
10700,-1.6999,-10.2544,0.3855,-1.2586,0.3449,0.4233
10708,-1.6712,-10.1107,0.3160,-1.2240,0.3593,0.4181
10717,-1.6520,-10.0509,0.2993,-1.1863,0.3733,0.4110
10724,-1.6376,-9.9575,0.3496,-1.1473,0.3880,0.4030
10732,-1.6089,-9.8043,0.2155,-1.1046,0.4110,0.3938
10740,-1.5945,-9.6965,0.4046,-1.0629,0.4291,0.3849
10748,-1.5826,-9.5433,0.2490,-1.0195,0.4454,0.3729
10757,-1.5203,-9.4667,0.3376,-0.9697,0.4582,0.3645
10765,-1.5299,-9.3733,0.3112,-0.9269,0.4732,0.3513
10772,-1.4676,-9.1818,0.2562,-0.8749,0.4842,0.3441
10780,-1.4772,-9.0166,0.3711,-0.8240,0.4918,0.3312
10788,-1.4796,-9.0142,0.3496,-0.7726,0.4984,0.3160
10797,-1.4748,-8.9088,0.3567,-0.7228,0.5069,0.3031
10805,-1.4724,-8.8131,0.2921,-0.6658,0.5096,0.2874
10812,-1.3886,-8.7125,0.3472,-0.6119,0.5157,0.2731
10820,-1.3575,-8.6622,0.3687,-0.5538,0.5164,0.2573
10828,-1.3408,-8.5138,0.3735,-0.4992,0.5211,0.2398
10836,-1.3791,-8.4922,0.2969,-0.4393,0.5180,0.2241
10845,-1.4126,-8.4324,0.4094,-0.3829,0.5145,0.2033
10853,-1.2785,-8.3151,0.2466,-0.3228,0.5045,0.1883
10860,-1.3336,-8.2983,0.4118,-0.2618,0.4978,0.1748
10868,-1.2713,-8.2480,0.3160,-0.1992,0.4888,0.1561
10876,-1.3264,-8.2049,0.3256,-0.1390,0.4748,0.1427
10885,-1.3216,-8.2049,0.3280,-0.0789,0.4582,0.1243
10893,-1.2905,-8.1594,0.3903,-0.0161,0.4395,0.1061
10900,-1.3048,-8.2289,0.4022,0.0436,0.4182,0.0889
10908,-1.3024,-8.2001,0.2777,0.1083,0.3958,0.0761
10916,-1.2881,-8.2049,0.4022,0.1689,0.3675,0.0626
10925,-1.3096,-8.2576,0.3950,0.2272,0.3369,0.0482
10933,-1.4126,-8.3031,0.3639,0.2878,0.3022,0.0376
10940,-1.3479,-8.2624,0.4142,0.3483,0.2603,0.0285
10948,-1.3288,-8.2768,0.2682,0.4114,0.2198,0.0200
10956,-1.4102,-8.3941,0.4118,0.4639,0.1745,0.0103
10964,-1.3815,-8.4228,0.4429,0.5269,0.1299,0.0040
10973,-1.4461,-8.5042,0.2442,0.5864,0.0731,0.0015
10981,-1.4892,-8.5856,0.4190,0.6450,0.0205,-0.0049
10988,-1.4293,-8.5928,0.3256,0.7032,-0.0325,-0.0113
10996,-1.4413,-8.7364,0.4070,0.7542,-0.0921,-0.0143
11004,-1.4868,-8.8131,0.3184,0.8031,-0.1479,-0.0196
11013,-1.4772,-8.8514,0.2777,0.8601,-0.2066,-0.0254
11021,-1.4844,-8.9256,0.2873,0.9050,-0.2653,-0.0357
11028,-1.5083,-9.1267,0.3280,0.9515,-0.3203,-0.0425
11036,-1.5802,-9.2057,0.2873,0.9939,-0.3729,-0.0550
11044,-1.5778,-9.3063,0.2753,1.0324,-0.4314,-0.0640
11053,-1.5874,-9.4164,0.2490,1.0718,-0.4862,-0.0767
11061,-1.5802,-9.5385,0.2490,1.1052,-0.5392,-0.0907
11069,-1.5778,-9.6343,0.2155,1.1411,-0.5939,-0.1022
11076,-1.6400,-9.8019,0.1796,1.1750,-0.6438,-0.1194
11084,-1.5993,-9.8809,0.1580,1.2036,-0.6907,-0.1359
11092,-1.6759,-10.0389,0.1987,1.2352,-0.7370,-0.1537
11101,-1.7190,-10.1490,0.1125,1.2616,-0.7838,-0.1665
11109,-1.7190,-10.2759,0.1556,1.2839,-0.8283,-0.1843
11116,-1.7549,-10.3525,0.0527,1.3033,-0.8729,-0.1980
11124,-1.8100,-10.5273,0.0431,1.3274,-0.9150,-0.2154
11132,-1.8076,-10.5919,0.0239,1.3467,-0.9535,-0.2310
11141,-1.8124,-10.7308,0.0359,1.3643,-0.9876,-0.2442
11149,-1.8052,-10.8960,0.0527,1.3792,-1.0263,-0.2598
11157,-1.8723,-11.0014,-0.0263,1.3903,-1.0548,-0.2802
11164,-1.8866,-11.1546,-0.0359,1.3977,-1.0845,-0.2948
11172,-1.9417,-11.2480,-0.0742,1.4021,-1.1107,-0.3140
11181,-1.9130,-11.3677,-0.0503,1.4111,-1.1294,-0.3312
11189,-1.9800,-11.4586,-0.0886,1.4125,-1.1462,-0.3504
11197,-1.9872,-11.5903,0.0431,1.4166,-1.1594,-0.3680
11204,-1.9920,-11.7603,0.0575,1.4202,-1.1706,-0.3870
11212,-2.0399,-11.8321,-0.0575,1.4265,-1.1782,-0.4088
11220,-2.0542,-11.9495,-0.0455,1.4313,-1.1836,-0.4238
11229,-2.0997,-12.0452,-0.0168,1.4414,-1.1819,-0.4407
11237,-2.0638,-12.1649,-0.0168,1.4536,-1.1775,-0.4558
11245,-2.0758,-12.2583,0.0239,1.4679,-1.1707,-0.4743
11252,-2.1811,-12.2823,0.0527,1.4782,-1.1586,-0.4915
11260,-2.1356,-12.3732,0.0168,1.4934,-1.1435,-0.5085
11269,-2.1811,-12.4475,0.0000,1.5119,-1.1330,-0.5255
11277,-2.2218,-12.5743,-0.0407,1.5284,-1.1139,-0.5371
11285,-2.2003,-12.6486,-0.0239,1.5461,-1.0958,-0.5548
11292,-2.1284,-12.6893,-0.0024,1.5668,-1.0738,-0.5660
11300,-2.1572,-12.7180,-0.0263,1.5865,-1.0480,-0.5828
11309,-2.2075,-12.7683,-0.0527,1.6065,-1.0239,-0.5939
11317,-2.1811,-12.8353,0.0431,1.6254,-0.9914,-0.6075
11325,-2.2242,-12.9215,0.0000,1.6457,-0.9622,-0.6205
11333,-2.2386,-12.9311,-0.0120,1.6663,-0.9312,-0.6359
11340,-2.2266,-12.9885,-0.0742,1.6790,-0.8988,-0.6484
11348,-2.1907,-12.9885,-0.1101,1.6880,-0.8665,-0.6644
11357,-2.1835,-13.0125,-0.1437,1.6746,-0.8312,-0.6769
11365,-2.2386,-13.0077,-0.0790,1.6912,-0.7962,-0.6871
11373,-2.2505,-12.9981,-0.0742,1.6910,-0.7590,-0.6999
11380,-2.2218,-13.0867,-0.0670,1.7092,-0.7258,-0.7093
11388,-2.2290,-13.0412,-0.0886,1.7208,-0.6969,-0.7212
11397,-2.1859,-13.0340,-0.0910,1.7068,-0.6612,-0.7238
11405,-2.2769,-13.0388,-0.1125,1.7228,-0.6263,-0.7349
11413,-2.3032,-12.9909,-0.0838,1.6994,-0.5955,-0.7370
11421,-2.2865,-12.9838,-0.1173,1.7096,-0.5602,-0.7384
11428,-2.2793,-12.8904,-0.1915,1.6827,-0.5340,-0.7428
11437,-2.2075,-12.9000,-0.1437,1.6834,-0.5055,-0.7436
11445,-2.2051,-12.8760,-0.2203,1.6722,-0.4739,-0.7426
11453,-2.2745,-12.7970,-0.1269,1.6667,-0.4449,-0.7401
11461,-2.2482,-12.7779,-0.1221,1.6257,-0.4145,-0.7373
11468,-2.2218,-12.6486,-0.2418,1.6214,-0.3906,-0.7313
11476,-2.1931,-12.6414,-0.1748,1.5961,-0.3647,-0.7262
11485,-2.2505,-12.4953,-0.1389,1.5752,-0.3441,-0.7201
11493,-2.1548,-12.4307,-0.0622,1.5508,-0.3231,-0.7135
11501,-2.1404,-12.3828,-0.2418,1.5271,-0.3086,-0.7079
11508,-2.1596,-12.2463,-0.1891,1.5028,-0.2891,-0.7009
11516,-2.1572,-12.1458,-0.1437,1.4802,-0.2706,-0.6929
11525,-2.0925,-12.0907,-0.1532,1.4558,-0.2566,-0.6848
11533,-2.1021,-11.9806,-0.1772,1.4337,-0.2446,-0.6749
11541,-2.1141,-11.8705,-0.1628,1.4075,-0.2377,-0.6684
11549,-2.0063,-11.6789,-0.1053,1.3873,-0.2305,-0.6563
11556,-2.1165,-11.6717,-0.1724,1.3631,-0.2262,-0.6427
11565,-1.9800,-11.5185,-0.2203,1.3402,-0.2181,-0.6340
11573,-2.0207,-11.3868,-0.0862,1.3167,-0.2221,-0.6234
11581,-1.9800,-11.3270,-0.1724,1.2969,-0.2225,-0.6178
11589,-2.0327,-11.1666,-0.0048,1.2706,-0.2233,-0.6035
11596,-1.9082,-11.0277,-0.0168,1.2486,-0.2234,-0.5955
11604,-1.9297,-10.9990,-0.1221,1.2284,-0.2312,-0.5860
11613,-1.9585,-10.8697,-0.0958,1.2008,-0.2352,-0.5730
11621,-1.9201,-10.6853,-0.0934,1.1700,-0.2438,-0.5629
11629,-1.8627,-10.6015,-0.1389,1.1475,-0.2505,-0.5494
11637,-1.8244,-10.4770,-0.0646,1.1173,-0.2561,-0.5449
11644,-1.8364,-10.4100,-0.0359,1.0909,-0.2627,-0.5284
11653,-1.8148,-10.3238,-0.1101,1.0639,-0.2741,-0.5180
11661,-1.8148,-10.2256,-0.0838,1.0332,-0.2852,-0.5065
11669,-1.7310,-10.0820,-0.0455,1.0063,-0.2954,-0.4950
11677,-1.7454,-9.9216,0.0000,0.9717,-0.3071,-0.4842
11684,-1.7358,-9.9072,-0.0575,0.9406,-0.3126,-0.4711
11693,-1.7502,-9.7181,-0.0694,0.9081,-0.3195,-0.4612
11701,-1.7741,-9.5672,-0.1365,0.8721,-0.3293,-0.4490
11709,-1.7071,-9.5122,-0.1293,0.8339,-0.3397,-0.4362
11717,-1.6352,-9.3996,-0.1389,0.7982,-0.3477,-0.4171
11725,-1.7119,-9.2895,-0.1101,0.7553,-0.3539,-0.4009
11732,-1.6688,-9.2153,-0.1460,0.7161,-0.3635,-0.3854
11741,-1.6759,-9.1315,-0.1652,0.6744,-0.3688,-0.3745
11749,-1.6233,-9.0573,-0.0982,0.6319,-0.3680,-0.3573
11757,-1.5802,-8.9974,-0.1269,0.5873,-0.3714,-0.3403
11765,-1.6281,-8.8992,-0.2083,0.5396,-0.3716,-0.3242
11772,-1.5921,-8.7963,-0.1245,0.4952,-0.3704,-0.3034
11781,-1.5443,-8.6933,-0.1077,0.4477,-0.3675,-0.2862
11789,-1.5562,-8.6191,-0.1341,0.3972,-0.3609,-0.2687
11797,-1.5586,-8.5808,-0.2346,0.3512,-0.3579,-0.2471
11805,-1.5730,-8.4898,-0.1963,0.3026,-0.3495,-0.2276
11813,-1.5634,-8.4420,-0.2490,0.2555,-0.3409,-0.2078
11821,-1.5514,-8.4036,-0.1532,0.2073,-0.3285,-0.1860
11829,-1.5012,-8.3869,-0.1867,0.1583,-0.3143,-0.1659
11837,-1.5371,-8.3606,-0.1580,0.1131,-0.2988,-0.1444
11845,-1.5443,-8.2744,-0.1748,0.0636,-0.2840,-0.1198
11853,-1.5347,-8.2408,-0.1173,0.0193,-0.2619,-0.0998
11860,-1.5299,-8.2432,-0.1532,-0.0260,-0.2409,-0.0765
11869,-1.4916,-8.2361,-0.2418,-0.0691,-0.2164,-0.0577
11877,-1.6041,-8.2097,-0.1963,-0.1128,-0.1928,-0.0337
11885,-1.5251,-8.2600,-0.1724,-0.1575,-0.1641,-0.0027
11893,-1.4509,-8.2432,-0.1173,-0.2032,-0.1364,0.0179
11901,-1.4892,-8.2744,-0.1293,-0.2467,-0.1081,0.0397
11909,-1.4940,-8.2959,-0.1197,-0.2887,-0.0690,0.0690
11917,-1.5514,-8.3294,-0.2155,-0.3313,-0.0372,0.0926
11925,-1.5107,-8.3486,-0.2298,-0.3756,0.0011,0.1215
11933,-1.5490,-8.4611,-0.1939,-0.4169,0.0372,0.1539
11941,-1.5586,-8.5042,-0.2298,-0.4623,0.0790,0.1796
11949,-1.5945,-8.5641,-0.1844,-0.4996,0.1207,0.2078
11957,-1.6400,-8.6239,-0.1173,-0.5405,0.1571,0.2305
11965,-1.5921,-8.7221,-0.0527,-0.5793,0.2002,0.2621
11973,-1.6209,-8.8370,-0.0838,-0.6131,0.2386,0.2895
11981,-1.6281,-8.8753,-0.1532,-0.6530,0.2794,0.3128
11990,-1.6424,-8.9423,-0.0982,-0.6896,0.3255,0.3363
11997,-1.6281,-9.0597,-0.0934,-0.7234,0.3697,0.3603
12005,-1.6735,-9.1099,-0.1532,-0.7536,0.4088,0.3761
12013,-1.6975,-9.2320,-0.0503,-0.7870,0.4450,0.3978
12021,-1.6568,-9.3326,-0.0335,-0.8146,0.4788,0.4158
12029,-1.7047,-9.4475,-0.0551,-0.8415,0.5139,0.4358
12037,-1.6640,-9.5337,0.0790,-0.8680,0.5461,0.4549
12045,-1.7023,-9.6606,0.0359,-0.8957,0.5797,0.4696
12053,-1.7382,-9.7276,0.0383,-0.9233,0.6090,0.4787
12061,-1.6999,-9.8737,0.0551,-0.9455,0.6408,0.4955
12069,-1.7430,-9.9407,-0.0359,-0.9703,0.6666,0.5049
12077,-1.7765,-10.0628,-0.0168,-0.9934,0.6941,0.5140
12085,-1.7406,-10.1538,0.0838,-1.0164,0.7193,0.5208
12093,-1.8651,-10.2496,0.1317,-1.0437,0.7426,0.5261
12101,-1.8148,-10.3956,0.0479,-1.0652,0.7635,0.5336
12109,-1.8028,-10.4483,0.1460,-1.0884,0.7817,0.5415
12118,-1.8004,-10.5896,0.1556,-1.1073,0.7963,0.5431
12125,-1.8794,-10.7595,0.1460,-1.1293,0.8074,0.5462
12133,-1.8890,-10.8362,0.0503,-1.1471,0.8190,0.5508
12141,-1.9010,-10.9894,0.1700,-1.1682,0.8334,0.5510
12149,-1.9178,-11.0349,0.1437,-1.1892,0.8410,0.5505
12157,-1.9225,-11.1235,0.1700,-1.2080,0.8446,0.5529
12165,-1.9345,-11.2432,0.2227,-1.2292,0.8466,0.5513
12173,-1.9704,-11.3461,0.1844,-1.2468,0.8454,0.5500
12181,-2.0016,-11.4108,0.1628,-1.2686,0.8410,0.5504
12189,-2.0542,-11.4778,0.1915,-1.2842,0.8427,0.5536
12197,-1.9752,-11.6119,0.1915,-1.3102,0.8408,0.5522
12206,-2.0327,-11.7340,0.1676,-1.3306,0.8338,0.5505
12213,-2.0303,-11.8824,0.1508,-1.3531,0.8335,0.5502
12221,-2.0734,-11.8944,0.1604,-1.3763,0.8211,0.5536
12229,-2.1021,-11.9949,0.2059,-1.3967,0.8159,0.5540
12237,-2.1332,-12.0811,0.1891,-1.4202,0.8050,0.5552
12246,-2.1859,-12.0979,0.2179,-1.4452,0.7993,0.5586
12253,-2.1644,-12.2176,0.2131,-1.4683,0.7891,0.5614
12261,-2.1859,-12.3325,0.2873,-1.4874,0.7751,0.5626
12269,-2.1835,-12.3469,0.2586,-1.5123,0.7572,0.5672
12277,-2.1859,-12.3804,0.3328,-1.5299,0.7357,0.5752
12285,-2.2122,-12.4283,0.2873,-1.5528,0.7125,0.5784
12294,-2.1404,-12.4618,0.2562,-1.5719,0.6896,0.5810
12301,-2.1763,-12.5097,0.3017,-1.5902,0.6718,0.5820
12309,-2.1404,-12.5552,0.3280,-1.6102,0.6484,0.5814
12317,-2.1859,-12.5839,0.2897,-1.6241,0.6290,0.5822
12325,-2.2194,-12.5839,0.3280,-1.6351,0.6049,0.5837
12334,-2.2721,-12.6222,0.3256,-1.6505,0.5780,0.5853
12341,-2.1668,-12.6294,0.3376,-1.6597,0.5533,0.5866
12349,-2.2146,-12.6246,0.3160,-1.6702,0.5209,0.5881
12357,-2.1691,-12.6414,0.2466,-1.6762,0.4975,0.5894
12365,-2.1715,-12.6893,0.2993,-1.6803,0.4652,0.5901
12374,-2.1548,-12.6438,0.2825,-1.6848,0.4389,0.5885
12382,-2.2027,-12.6917,0.3879,-1.6804,0.4100,0.5844
12389,-2.1691,-12.5791,0.3424,-1.6811,0.3874,0.5849
12397,-2.1237,-12.6103,0.3855,-1.6733,0.3635,0.5824
12405,-2.1356,-12.5815,0.3328,-1.6709,0.3424,0.5776
12413,-2.1596,-12.5815,0.2825,-1.6655,0.3179,0.5794
12422,-2.1237,-12.4714,0.3304,-1.6577,0.3014,0.5746
12429,-2.0830,-12.4379,0.3208,-1.6423,0.2770,0.5720
12437,-2.1332,-12.4068,0.2969,-1.6322,0.2685,0.5741
12445,-2.0135,-12.3948,0.4166,-1.6157,0.2506,0.5684
12453,-2.0853,-12.3038,0.2993,-1.6026,0.2401,0.5624
12462,-2.0638,-12.1985,0.3687,-1.5894,0.2277,0.5592
12470,-2.0830,-12.1697,0.2705,-1.5688,0.2182,0.5550
12477,-2.0135,-12.0620,0.3783,-1.5507,0.2073,0.5522
12485,-2.0255,-12.0261,0.3663,-1.5320,0.2009,0.5488
12493,-2.0159,-11.9064,0.3591,-1.5163,0.1907,0.5461
12502,-2.0039,-11.8561,0.4429,-1.4933,0.1884,0.5438
12510,-1.9561,-11.7292,0.3926,-1.4711,0.1936,0.5365
12517,-1.9441,-11.6382,0.4118,-1.4516,0.1939,0.5309
12525,-1.9297,-11.6167,0.2945,-1.4296,0.1968,0.5297
12533,-1.9465,-11.4826,0.3950,-1.4091,0.2021,0.5197
12541,-1.9225,-11.3365,0.3711,-1.3841,0.2032,0.5159
12550,-1.8914,-11.2743,0.2945,-1.3611,0.2053,0.5131
12558,-1.8483,-11.1618,0.3519,-1.3380,0.2070,0.5068
12565,-1.8723,-11.0612,0.2825,-1.3107,0.2134,0.5016
12573,-1.8723,-10.9798,0.2490,-1.2922,0.2222,0.4943
12581,-1.8364,-10.8505,0.2562,-1.2664,0.2328,0.4879
12590,-1.7861,-10.7069,0.2873,-1.2389,0.2433,0.4835
12598,-1.7645,-10.6087,0.2921,-1.2147,0.2557,0.4772
12605,-1.7957,-10.5369,0.2658,-1.1908,0.2639,0.4668
12613,-1.7430,-10.4172,0.2059,-1.1607,0.2731,0.4620
12621,-1.7119,-10.3022,0.2274,-1.1337,0.2825,0.4539
12630,-1.7430,-10.2759,0.2298,-1.1070,0.2928,0.4466
12638,-1.6616,-10.1155,0.2538,-1.0781,0.2988,0.4375
12645,-1.6592,-10.0604,0.3136,-1.0447,0.3099,0.4314
12653,-1.6520,-10.0006,0.2298,-1.0142,0.3222,0.4241
12661,-1.7023,-9.8282,0.2442,-0.9769,0.3347,0.4097
12669,-1.5778,-9.8162,0.2921,-0.9369,0.3468,0.4010
12678,-1.5682,-9.6391,0.2825,-0.9014,0.3549,0.3892
12686,-1.5802,-9.6175,0.2298,-0.8632,0.3648,0.3801
12693,-1.5658,-9.5217,0.2873,-0.8215,0.3689,0.3673
12701,-1.5251,-9.4547,0.4070,-0.7815,0.3769,0.3575
12709,-1.6065,-9.3350,0.3567,-0.7381,0.3790,0.3440
12718,-1.5419,-9.2560,0.3256,-0.6927,0.3825,0.3308
12726,-1.5395,-9.1722,0.3711,-0.6478,0.3853,0.3192
12733,-1.5251,-9.1075,0.2514,-0.5993,0.3865,0.3047
12741,-1.4844,-9.0668,0.4094,-0.5513,0.3852,0.2895
12749,-1.4365,-8.9783,0.3184,-0.5013,0.3860,0.2782
12758,-1.3886,-8.9376,0.4022,-0.4509,0.3908,0.2625
12766,-1.3623,-8.8418,0.3041,-0.4012,0.3834,0.2518
12774,-1.4006,-8.8274,0.3232,-0.3527,0.3756,0.2366
12781,-1.4174,-8.7819,0.3256,-0.2994,0.3698,0.2221
12789,-1.3408,-8.6862,0.3687,-0.2501,0.3593,0.2065
12797,-1.3791,-8.7125,0.3376,-0.1956,0.3489,0.1919
12806,-1.3815,-8.6526,0.2945,-0.1458,0.3353,0.1739
12814,-1.3862,-8.6550,0.4118,-0.0926,0.3239,0.1552
12821,-1.4150,-8.5784,0.3735,-0.0386,0.3075,0.1407
12829,-1.3360,-8.5186,0.3328,0.0103,0.2888,0.1274
12837,-1.3838,-8.6215,0.3591,0.0648,0.2681,0.1107
12846,-1.3910,-8.5593,0.3807,0.1163,0.2467,0.0965
12854,-1.3695,-8.5976,0.2801,0.1680,0.2188,0.0811
12862,-1.3575,-8.5928,0.3112,0.2192,0.1921,0.0609
12869,-1.3791,-8.6119,0.3807,0.2679,0.1661,0.0466
12877,-1.4054,-8.6359,0.4094,0.3175,0.1282,0.0312
12886,-1.4078,-8.5976,0.2682,0.3636,0.0942,0.0165
12894,-1.4605,-8.7173,0.3304,0.4118,0.0574,0.0065
12902,-1.4509,-8.6981,0.3184,0.4616,0.0183,-0.0080
12909,-1.4317,-8.7747,0.3711,0.5079,-0.0205,-0.0173
12917,-1.4030,-8.8274,0.2035,0.5541,-0.0629,-0.0278
12925,-1.4700,-8.9136,0.3687,0.5991,-0.1041,-0.0389
12934,-1.4940,-9.0333,0.2394,0.6448,-0.1432,-0.0465
12942,-1.4940,-9.0740,0.2729,0.6872,-0.1840,-0.0578
12950,-1.5155,-9.0932,0.2586,0.7290,-0.2273,-0.0695
12957,-1.5107,-9.1363,0.3280,0.7670,-0.2669,-0.0821
12965,-1.4892,-9.2823,0.2179,0.8035,-0.3030,-0.0953
12974,-1.5490,-9.3877,0.1987,0.8422,-0.3433,-0.1049
12982,-1.5730,-9.4355,0.1915,0.8785,-0.3829,-0.1184
12990,-1.5419,-9.5457,0.2131,0.9116,-0.4199,-0.1323
12997,-1.5514,-9.6391,0.2538,0.9485,-0.4595,-0.1463
13005,-1.5514,-9.7109,0.3017,0.9763,-0.4978,-0.1597
13014,-1.6257,-9.8090,0.1652,1.0088,-0.5349,-0.1735
13022,-1.6448,-9.9311,0.1077,1.0416,-0.5670,-0.1880
13030,-1.6664,-10.0509,0.1604,1.0681,-0.6023,-0.2026
13038,-1.7214,-10.1490,0.1580,1.0984,-0.6382,-0.2197
13045,-1.6616,-10.2639,0.0790,1.1211,-0.6680,-0.2348
13053,-1.7047,-10.3741,0.1077,1.1419,-0.6983,-0.2510
13062,-1.7837,-10.4124,0.0335,1.1607,-0.7286,-0.2678
13070,-1.8028,-10.5273,0.0646,1.1751,-0.7541,-0.2802
13078,-1.7502,-10.5967,0.1149,1.1934,-0.7838,-0.2943
13085,-1.8172,-10.6805,0.0431,1.2081,-0.8055,-0.3095
13093,-1.8962,-10.7356,0.0192,1.2175,-0.8295,-0.3226
13102,-1.8411,-10.8697,0.0239,1.2295,-0.8544,-0.3349
13110,-1.9082,-10.9678,0.0503,1.2434,-0.8681,-0.3515
13118,-1.8794,-11.0636,0.0359,1.2558,-0.8851,-0.3651
13126,-1.8747,-11.2408,-0.0694,1.2650,-0.9018,-0.3842
13133,-1.8699,-11.1881,0.0503,1.2768,-0.9120,-0.3992
13142,-1.9369,-11.3270,-0.0048,1.2826,-0.9200,-0.4135
13150,-1.9249,-11.4036,-0.0168,1.2942,-0.9304,-0.4297
13158,-1.9968,-11.5041,0.0263,1.2990,-0.9366,-0.4473
13166,-1.9872,-11.5927,-0.0072,1.3057,-0.9405,-0.4670
13173,-1.9800,-11.6669,0.0048,1.3159,-0.9442,-0.4799
13181,-1.9561,-11.7555,-0.0479,1.3257,-0.9402,-0.4955
13190,-2.0135,-11.7819,-0.0311,1.3366,-0.9373,-0.5121
13198,-2.0446,-11.8561,0.0168,1.3502,-0.9338,-0.5229
13206,-2.0279,-11.9638,0.0838,1.3586,-0.9280,-0.5336
13214,-2.0877,-12.0141,-0.0383,1.3737,-0.9194,-0.5469
13221,-2.1021,-12.0309,0.0263,1.3907,-0.9125,-0.5596
13230,-2.1261,-12.1386,0.0431,1.3999,-0.9012,-0.5728
13238,-2.0806,-12.1697,0.0383,1.4111,-0.8857,-0.5841
13246,-2.1189,-12.2320,-0.0575,1.4138,-0.8695,-0.5942
13254,-2.0566,-12.2416,-0.0599,1.4252,-0.8537,-0.6055
13261,-2.1668,-12.2128,-0.0383,1.4370,-0.8352,-0.6158
13270,-2.0638,-12.3397,-0.0239,1.4420,-0.8220,-0.6270
13278,-2.1596,-12.3158,-0.0838,1.4518,-0.8001,-0.6378
13286,-2.0590,-12.3373,-0.1437,1.4578,-0.7759,-0.6478
13294,-2.1069,-12.3565,-0.0886,1.4661,-0.7585,-0.6562
13301,-2.1213,-12.3541,0.0168,1.4691,-0.7332,-0.6690
13309,-2.0997,-12.3876,-0.1437,1.4725,-0.7081,-0.6765
13318,-2.1596,-12.3397,-0.1580,1.4733,-0.6833,-0.6869
13326,-2.1835,-12.3349,-0.0886,1.4749,-0.6550,-0.6952
13334,-2.1308,-12.3637,-0.0215,1.4726,-0.6362,-0.6996
13342,-2.1428,-12.3852,-0.0503,1.4703,-0.6093,-0.7064
13349,-2.1476,-12.2942,-0.1556,1.4631,-0.5865,-0.7109
13358,-2.1117,-12.2368,-0.0527,1.4565,-0.5600,-0.7141
13366,-2.1452,-12.2200,-0.0407,1.4482,-0.5307,-0.7175
13374,-2.1308,-12.2056,-0.0694,1.4364,-0.5129,-0.7213
13382,-2.1548,-12.1434,-0.1245,1.4269,-0.4899,-0.7216
13389,-2.1237,-12.1745,-0.0814,1.4146,-0.4622,-0.7165
13398,-2.1404,-12.0309,-0.1508,1.4011,-0.4387,-0.7200
13406,-2.1117,-11.9734,-0.0790,1.3828,-0.4179,-0.7157
13414,-2.1284,-11.9135,-0.2251,1.3679,-0.3969,-0.7091
13422,-2.1261,-11.8513,-0.1221,1.3526,-0.3769,-0.7063
13430,-2.0806,-11.8585,-0.1317,1.3311,-0.3557,-0.7011
13437,-2.0494,-11.7890,-0.0886,1.3163,-0.3415,-0.6948
13446,-2.0231,-11.7244,-0.1317,1.2937,-0.3280,-0.6892
13454,-2.1237,-11.6262,-0.1101,1.2772,-0.3131,-0.6788
13462,-2.0279,-11.5113,-0.1030,1.2529,-0.2955,-0.6755
13470,-2.0446,-11.4323,-0.0599,1.2379,-0.2880,-0.6658
13477,-2.0327,-11.3988,-0.0527,1.2165,-0.2763,-0.6571
13486,-2.0111,-11.2887,-0.1030,1.1995,-0.2677,-0.6483
13494,-1.9465,-11.2073,-0.0934,1.1776,-0.2633,-0.6364
13502,-1.9321,-11.1259,-0.1556,1.1607,-0.2557,-0.6302
13510,-1.9728,-11.0325,-0.0766,1.1345,-0.2515,-0.6197
13518,-1.9465,-10.8984,-0.1101,1.1150,-0.2457,-0.6117
13526,-1.9201,-10.8601,-0.0622,1.0909,-0.2430,-0.6013
13534,-1.9130,-10.7452,-0.1532,1.0710,-0.2397,-0.5913
13542,-1.8794,-10.7236,-0.0335,1.0431,-0.2385,-0.5804
13550,-1.8555,-10.5872,-0.0239,1.0198,-0.2399,-0.5654
13558,-1.8794,-10.4698,-0.0599,0.9988,-0.2401,-0.5540
13565,-1.8148,-10.3669,-0.1006,0.9719,-0.2449,-0.5448
13574,-1.8387,-10.2520,-0.0670,0.9438,-0.2431,-0.5320
13582,-1.8124,-10.1227,-0.0527,0.9164,-0.2461,-0.5221
13590,-1.7669,-10.1442,-0.0814,0.8905,-0.2494,-0.5083
13598,-1.7957,-10.0389,0.0335,0.8620,-0.2515,-0.4958
13606,-1.7454,-9.8952,-0.1149,0.8400,-0.2509,-0.4867
13614,-1.7502,-9.7971,-0.0814,0.8082,-0.2543,-0.4751
13622,-1.6735,-9.7947,-0.0718,0.7798,-0.2566,-0.4634
13630,-1.7286,-9.6678,-0.0263,0.7466,-0.2622,-0.4539
13638,-1.7166,-9.5553,-0.0335,0.7193,-0.2623,-0.4385
13646,-1.6544,-9.5098,-0.1149,0.6857,-0.2679,-0.4233
13654,-1.6281,-9.4499,-0.1006,0.6490,-0.2662,-0.4116
13662,-1.6281,-9.3541,-0.0455,0.6169,-0.2657,-0.3966
13670,-1.6999,-9.2703,-0.1532,0.5824,-0.2667,-0.3797
13678,-1.6257,-9.2225,-0.1413,0.5448,-0.2667,-0.3667
13686,-1.6352,-9.1219,-0.1796,0.5060,-0.2657,-0.3512
13694,-1.6424,-9.0333,-0.1963,0.4660,-0.2637,-0.3312
13702,-1.6065,-9.0357,-0.0886,0.4295,-0.2683,-0.3155
13710,-1.6305,-9.0333,-0.1365,0.3881,-0.2589,-0.2950
13718,-1.6137,-8.9423,-0.1149,0.3463,-0.2582,-0.2777
13726,-1.5826,-8.8657,-0.1389,0.3067,-0.2483,-0.2558
13734,-1.5754,-8.8131,-0.1053,0.2617,-0.2441,-0.2346
13742,-1.5538,-8.7843,-0.2370,0.2234,-0.2373,-0.2164
13750,-1.6712,-8.7700,-0.1820,0.1831,-0.2273,-0.1917
13758,-1.6257,-8.5880,-0.1915,0.1432,-0.2162,-0.1675
13766,-1.5706,-8.6550,-0.1604,0.0993,-0.2028,-0.1474
13774,-1.5083,-8.6167,-0.1772,0.0608,-0.1895,-0.1258
13783,-1.5323,-8.6335,-0.1293,0.0197,-0.1779,-0.1022
13790,-1.5802,-8.5952,-0.0934,-0.0189,-0.1619,-0.0818
13798,-1.5921,-8.6646,-0.1987,-0.0584,-0.1442,-0.0566
13806,-1.5467,-8.6024,-0.1580,-0.1013,-0.1236,-0.0324
13814,-1.5921,-8.6024,-0.0886,-0.1383,-0.0986,-0.0089
13822,-1.5706,-8.6072,-0.1604,-0.1735,-0.0687,0.0125
13830,-1.5299,-8.6287,-0.2059,-0.2110,-0.0453,0.0372
13838,-1.5874,-8.6263,-0.0694,-0.2475,-0.0136,0.0625
13846,-1.6089,-8.6287,-0.1508,-0.2859,0.0156,0.0851
13854,-1.5634,-8.7221,-0.1580,-0.3200,0.0432,0.1090
13862,-1.5467,-8.6574,-0.0910,-0.3552,0.0749,0.1356
13871,-1.5682,-8.7747,-0.0814,-0.3897,0.1081,0.1595
13878,-1.6352,-8.8131,-0.0958,-0.4269,0.1430,0.1821
13886,-1.6161,-8.8849,-0.1077,-0.4578,0.1776,0.2050
13894,-1.6233,-8.9352,-0.0982,-0.4911,0.2102,0.2281
13902,-1.5921,-8.9639,0.0000,-0.5228,0.2423,0.2479
13911,-1.6017,-9.1099,0.0048,-0.5545,0.2773,0.2706
13918,-1.6089,-9.1123,-0.0742,-0.5832,0.3094,0.2887
13926,-1.6568,-9.1698,-0.0718,-0.6162,0.3373,0.3063
13934,-1.6735,-9.2823,-0.1006,-0.6439,0.3628,0.3285
13942,-1.6903,-9.3470,-0.0239,-0.6696,0.3898,0.3464
13950,-1.7286,-9.4164,-0.0503,-0.6968,0.4194,0.3659
13959,-1.7310,-9.4810,-0.0575,-0.7256,0.4521,0.3838
13966,-1.7286,-9.6367,0.0072,-0.7478,0.4807,0.4009
13974,-1.7502,-9.6606,0.0311,-0.7731,0.5084,0.4145
13982,-1.6688,-9.7659,0.1006,-0.7947,0.5364,0.4319
13990,-1.7502,-9.8306,0.0503,-0.8146,0.5514,0.4410
13999,-1.7573,-9.8593,0.1053,-0.8430,0.5774,0.4555
14006,-1.7645,-10.0102,0.0168,-0.8636,0.5945,0.4683
14014,-1.7813,-10.0652,0.0646,-0.8907,0.6109,0.4788
14022,-1.8579,-10.1323,0.0407,-0.9128,0.6225,0.4906
14030,-1.8651,-10.2999,0.0982,-0.9348,0.6436,0.4980
14039,-1.8148,-10.3358,0.0718,-0.9514,0.6504,0.5093
14046,-1.8052,-10.4435,0.0766,-0.9765,0.6632,0.5144
14054,-1.8794,-10.4842,0.0670,-0.9956,0.6690,0.5223
14062,-1.8651,-10.5656,0.1077,-1.0142,0.6817,0.5295
14070,-1.8938,-10.6590,0.0551,-1.0381,0.6840,0.5372
14078,-1.8794,-10.6949,0.0958,-1.0541,0.6869,0.5401
14087,-1.8651,-10.8505,0.1221,-1.0765,0.6904,0.5445
14094,-1.8699,-10.9798,0.0527,-1.0970,0.6885,0.5477
14102,-1.8962,-10.9822,0.0910,-1.1193,0.6895,0.5509
14110,-1.9273,-11.0780,0.2155,-1.1401,0.6837,0.5534
14118,-1.9178,-11.1474,0.0551,-1.1584,0.6855,0.5572
14127,-1.9920,-11.2360,0.1173,-1.1755,0.6769,0.5624
14134,-1.9800,-11.2767,0.2490,-1.1964,0.6769,0.5648
14142,-1.9513,-11.3150,0.1197,-1.2145,0.6692,0.5649
14150,-2.0279,-11.4132,0.2011,-1.2333,0.6595,0.5713
14158,-2.0925,-11.5472,0.1437,-1.2552,0.6504,0.5752
14167,-2.0423,-11.5784,0.1987,-1.2737,0.6398,0.5810
14175,-2.0782,-11.6861,0.2490,-1.2945,0.6312,0.5840
14182,-2.0135,-11.7076,0.1628,-1.3151,0.6195,0.5870
14190,-2.0423,-11.7771,0.1053,-1.3295,0.6095,0.5894
14198,-2.0782,-11.8226,0.2586,-1.3475,0.5939,0.5982
14206,-2.0877,-11.8609,0.2418,-1.3663,0.5820,0.6030
14215,-2.1045,-11.9423,0.1987,-1.3799,0.5642,0.6062
14222,-2.0686,-11.9590,0.2179,-1.3927,0.5501,0.6098
14230,-2.0758,-11.9758,0.2394,-1.4043,0.5308,0.6133
14238,-2.1045,-12.0093,0.2298,-1.4156,0.5196,0.6157
14246,-2.0758,-12.0620,0.1724,-1.4262,0.5069,0.6171
14255,-2.1811,-12.0357,0.2586,-1.4361,0.4850,0.6214
14263,-2.0662,-12.0572,0.2825,-1.4413,0.4683,0.6211
14270,-2.0638,-12.0596,0.2658,-1.4481,0.4485,0.6237
14278,-2.1237,-12.0859,0.2227,-1.4530,0.4325,0.6250
14286,-2.0614,-12.0979,0.2634,-1.4609,0.4147,0.6266
14295,-2.0806,-12.0979,0.2705,-1.4590,0.4000,0.6298
14303,-2.0303,-12.1434,0.2801,-1.4611,0.3861,0.6254
14310,-2.0135,-12.0045,0.2538,-1.4589,0.3663,0.6233
14318,-2.0375,-12.0309,0.3519,-1.4544,0.3565,0.6198
14326,-2.0566,-12.0069,0.3256,-1.4489,0.3416,0.6201
14334,-2.0518,-12.0333,0.3591,-1.4433,0.3287,0.6175
14343,-1.9968,-11.9112,0.3328,-1.4374,0.3162,0.6161
14351,-1.9704,-11.9686,0.2682,-1.4301,0.3094,0.6134
14358,-1.9728,-11.8992,0.2658,-1.4200,0.2980,0.6114
14366,-2.0255,-11.8226,0.3065,-1.4084,0.2910,0.6078
14374,-1.9992,-11.8226,0.2610,-1.3977,0.2870,0.6021
14383,-1.9609,-11.7914,0.3208,-1.3828,0.2809,0.5958
14391,-2.0087,-11.6646,0.3208,-1.3695,0.2771,0.5925
14398,-1.9537,-11.6550,0.3400,-1.3506,0.2725,0.5844
14406,-1.9848,-11.6358,0.3136,-1.3371,0.2706,0.5858
14414,-1.9680,-11.5808,0.3448,-1.3195,0.2673,0.5818
14423,-1.9728,-11.4754,0.3735,-1.3047,0.2681,0.5746
14431,-1.9537,-11.4036,0.3711,-1.2850,0.2642,0.5732
14439,-1.9058,-11.3318,0.2370,-1.2689,0.2637,0.5674
14446,-1.9154,-11.3030,0.2466,-1.2532,0.2675,0.5621
14454,-1.8794,-11.1905,0.3089,-1.2317,0.2689,0.5572
14462,-1.8244,-11.1259,0.2969,-1.2108,0.2686,0.5516
14471,-1.9369,-11.0780,0.1891,-1.1936,0.2697,0.5456
14479,-1.8100,-10.9990,0.2993,-1.1719,0.2746,0.5379
14486,-1.8244,-10.8816,0.3615,-1.1547,0.2751,0.5293
14494,-1.8244,-10.8194,0.2634,-1.1331,0.2725,0.5259
14502,-1.7669,-10.7667,0.2418,-1.1111,0.2735,0.5175
14511,-1.7262,-10.5991,0.1915,-1.0862,0.2729,0.5111
14519,-1.7789,-10.5153,0.2682,-1.0655,0.2751,0.5053
14527,-1.6999,-10.4914,0.2490,-1.0393,0.2783,0.4956
14534,-1.7885,-10.4627,0.2969,-1.0167,0.2787,0.4878
14542,-1.5993,-10.3214,0.1508,-0.9903,0.2766,0.4799
14551,-1.6759,-10.2400,0.3448,-0.9646,0.2773,0.4716
14559,-1.7142,-10.1131,0.3496,-0.9393,0.2782,0.4631
14567,-1.6807,-10.0628,0.2370,-0.9105,0.2826,0.4530
14574,-1.6496,-9.9910,0.3376,-0.8821,0.2799,0.4419
14582,-1.6448,-9.9168,0.3711,-0.8529,0.2840,0.4294
14590,-1.6233,-9.7875,0.2586,-0.8228,0.2862,0.4193
14599,-1.5897,-9.7947,0.2993,-0.7913,0.2894,0.4088
14607,-1.5275,-9.6726,0.1891,-0.7602,0.2943,0.3950
14615,-1.6712,-9.5936,0.2921,-0.7252,0.2956,0.3830
14622,-1.5179,-9.5098,0.2107,-0.6845,0.2976,0.3724
14630,-1.4868,-9.4763,0.2682,-0.6531,0.2966,0.3595
14639,-1.4772,-9.3996,0.2825,-0.6125,0.2959,0.3469
14647,-1.5203,-9.3278,0.3184,-0.5774,0.2964,0.3335
14655,-1.5179,-9.3134,0.2322,-0.5336,0.2962,0.3178
14662,-1.4413,-9.2895,0.3232,-0.4971,0.2906,0.3051
14670,-1.4916,-9.1267,0.3280,-0.4558,0.2883,0.2919
14679,-1.4006,-9.1219,0.2897,-0.4153,0.2793,0.2759
14687,-1.5131,-9.1746,0.3950,-0.3737,0.2725,0.2594
14695,-1.4629,-9.0309,0.3687,-0.3296,0.2621,0.2455
14702,-1.4365,-9.0477,0.2011,-0.2900,0.2546,0.2302
14710,-1.4461,-8.9567,0.3663,-0.2459,0.2423,0.2166
14718,-1.4413,-8.9040,0.3184,-0.2008,0.2285,0.2054
14727,-1.4365,-8.8825,0.3711,-0.1571,0.2100,0.1889
14735,-1.4317,-8.9567,0.3615,-0.1110,0.1908,0.1749
14743,-1.4389,-8.8585,0.3136,-0.0652,0.1776,0.1580
14750,-1.4126,-8.8298,0.3376,-0.0236,0.1569,0.1436
14758,-1.3886,-8.8897,0.2849,0.0225,0.1371,0.1299
14767,-1.3767,-8.8442,0.2897,0.0694,0.1166,0.1110
14775,-1.4581,-8.8585,0.3041,0.1111,0.0967,0.0981
14783,-1.4222,-8.8753,0.3256,0.1559,0.0689,0.0830
14790,-1.4509,-8.9136,0.2849,0.1976,0.0437,0.0654
14798,-1.4629,-8.8538,0.3855,0.2403,0.0177,0.0517
14807,-1.4413,-8.9256,0.2179,0.2843,-0.0032,0.0364
14815,-1.4676,-8.9759,0.2658,0.3223,-0.0312,0.0222
14823,-1.4293,-8.9519,0.2729,0.3637,-0.0542,0.0100
14831,-1.4772,-8.9902,0.2179,0.4086,-0.0809,-0.0061
14838,-1.5083,-9.0285,0.3041,0.4457,-0.1047,-0.0163
14846,-1.4317,-9.0070,0.2346,0.4907,-0.1402,-0.0322
14855,-1.4892,-9.1075,0.2227,0.5252,-0.1644,-0.0454
14863,-1.5754,-9.1842,0.2562,0.5622,-0.1940,-0.0592
14871,-1.5395,-9.1889,0.1867,0.5986,-0.2174,-0.0742
14878,-1.4916,-9.2440,0.2873,0.6343,-0.2514,-0.0862
14886,-1.4916,-9.3661,0.1604,0.6707,-0.2757,-0.0994
14895,-1.5323,-9.4068,0.2011,0.7003,-0.3031,-0.1152
14903,-1.5826,-9.4140,0.1844,0.7349,-0.3327,-0.1307
14911,-1.5323,-9.5888,0.2107,0.7646,-0.3589,-0.1470
14919,-1.6113,-9.6175,0.2251,0.7938,-0.3902,-0.1619
14926,-1.6089,-9.6965,0.1125,0.8238,-0.4210,-0.1775
14935,-1.6400,-9.8306,0.1197,0.8507,-0.4499,-0.1937
14943,-1.6281,-9.7971,0.2035,0.8767,-0.4779,-0.2117
14951,-1.6113,-9.9431,0.0910,0.9038,-0.5040,-0.2252
14959,-1.6688,-9.9790,0.0790,0.9284,-0.5283,-0.2423
14966,-1.6640,-10.0700,0.1053,0.9499,-0.5514,-0.2585
14974,-1.7095,-10.1993,0.1844,0.9707,-0.5752,-0.2770
14983,-1.7406,-10.2376,0.1389,0.9946,-0.5937,-0.2892
14991,-1.6496,-10.3094,0.1628,1.0176,-0.6191,-0.3028
14999,-1.7166,-10.4746,0.1676,1.0337,-0.6402,-0.3175
15007,-1.7549,-10.4291,0.2227,1.0491,-0.6592,-0.3319
15014,-1.7837,-10.5512,0.0934,1.0639,-0.6755,-0.3493
15023,-1.7645,-10.6518,0.0790,1.0781,-0.6932,-0.3625
15031,-1.7861,-10.7380,0.1317,1.0920,-0.7021,-0.3765
15039,-1.7909,-10.7931,0.0622,1.1034,-0.7180,-0.3881
15047,-1.8268,-10.8409,0.1221,1.1151,-0.7332,-0.4052
15054,-1.8483,-11.0014,-0.0311,1.1266,-0.7413,-0.4182
15063,-1.8124,-11.0684,0.0000,1.1383,-0.7492,-0.4338
15071,-1.8483,-11.0253,0.0239,1.1438,-0.7549,-0.4447
15079,-1.8890,-11.1091,0.0072,1.1528,-0.7633,-0.4584
15087,-1.9632,-11.1354,-0.0168,1.1587,-0.7743,-0.4716
15095,-1.9273,-11.2623,0.0982,1.1720,-0.7714,-0.4840
15102,-1.9010,-11.2911,0.0527,1.1810,-0.7778,-0.4980
15111,-1.9824,-11.3389,0.0742,1.1923,-0.7766,-0.5113
15119,-1.9704,-11.4299,-0.0670,1.2017,-0.7746,-0.5188
15127,-1.9489,-11.5137,0.0407,1.2053,-0.7751,-0.5288
15135,-2.0135,-11.4946,0.0814,1.2155,-0.7733,-0.5417
15142,-1.9225,-11.4874,0.0024,1.2259,-0.7669,-0.5509
15151,-1.9513,-11.6119,-0.0024,1.2295,-0.7588,-0.5640
15159,-2.0063,-11.6286,0.0120,1.2404,-0.7514,-0.5757
15167,-2.0016,-11.7244,0.0263,1.2477,-0.7429,-0.5865
15175,-2.0542,-11.7316,-0.0359,1.2526,-0.7340,-0.5971
15183,-2.0470,-11.7843,-0.0024,1.2569,-0.7222,-0.6074
15191,-1.9896,-11.7962,-0.0048,1.2661,-0.7097,-0.6154
15199,-2.0423,-11.7507,0.0479,1.2702,-0.6957,-0.6241
15207,-2.0399,-11.7867,-0.0024,1.2777,-0.6813,-0.6327
15215,-2.0207,-11.8609,-0.0335,1.2769,-0.6644,-0.6411
15223,-2.0590,-11.8992,0.0144,1.2806,-0.6483,-0.6528
15230,-2.0997,-11.8609,-0.1030,1.2810,-0.6291,-0.6611
15239,-2.0494,-11.8944,-0.0479,1.2832,-0.6139,-0.6659
15247,-2.0542,-11.9135,0.0455,1.2804,-0.5975,-0.6715
15255,-2.0662,-11.8489,-0.1006,1.2792,-0.5812,-0.6811
15263,-2.0638,-11.9207,-0.0096,1.2774,-0.5610,-0.6828
15271,-2.0518,-11.8130,-0.0838,1.2745,-0.5476,-0.6891
15279,-2.0590,-11.7723,-0.0622,1.2668,-0.5325,-0.6931
15287,-2.0399,-11.7843,-0.0527,1.2601,-0.5109,-0.7019
15295,-2.0087,-11.7723,-0.1652,1.2537,-0.4914,-0.7059
15303,-2.1069,-11.7364,-0.1484,1.2449,-0.4736,-0.7107
15311,-2.0925,-11.6693,-0.0670,1.2343,-0.4592,-0.7051
15319,-2.0686,-11.6669,-0.1101,1.2245,-0.4435,-0.7056
15327,-2.0303,-11.5975,-0.1173,1.2113,-0.4249,-0.7043
15335,-2.0351,-11.5401,-0.1245,1.1960,-0.4072,-0.7048
15343,-2.1069,-11.5424,-0.0790,1.1836,-0.3946,-0.6999
15351,-1.9944,-11.4491,-0.0694,1.1679,-0.3766,-0.6943
15358,-1.9872,-11.3653,-0.0886,1.1566,-0.3629,-0.6931
15367,-1.9513,-11.3605,-0.1173,1.1351,-0.3516,-0.6873
15375,-1.9872,-11.3030,-0.1317,1.1206,-0.3352,-0.6797
15383,-1.9297,-11.2097,-0.0670,1.1061,-0.3248,-0.6744
15391,-1.9393,-11.1354,-0.1867,1.0848,-0.3142,-0.6668
15399,-1.9130,-11.0899,-0.0766,1.0706,-0.2964,-0.6562
15407,-1.9776,-11.0277,-0.0838,1.0509,-0.2926,-0.6492
15415,-1.9106,-10.9894,-0.0383,1.0327,-0.2846,-0.6399
15423,-1.9656,-10.8769,-0.0359,1.0106,-0.2739,-0.6303
15431,-1.9225,-10.8529,-0.0718,0.9964,-0.2675,-0.6203
15439,-1.9082,-10.7380,-0.1197,0.9790,-0.2601,-0.6113
15447,-1.8675,-10.7069,-0.0838,0.9539,-0.2517,-0.6027
15455,-1.9249,-10.5848,-0.0934,0.9348,-0.2455,-0.5889
15463,-1.9082,-10.5058,-0.1604,0.9122,-0.2431,-0.5766
15471,-1.8411,-10.4890,-0.1317,0.8922,-0.2390,-0.5660
15479,-1.8172,-10.3956,0.0000,0.8692,-0.2314,-0.5568
15488,-1.8196,-10.3070,-0.0431,0.8431,-0.2286,-0.5442
15495,-1.8196,-10.2592,-0.0551,0.8206,-0.2248,-0.5323
15503,-1.8100,-10.1299,-0.1437,0.7947,-0.2236,-0.5184
15511,-1.8148,-10.0580,-0.1030,0.7747,-0.2228,-0.5065
15519,-1.8028,-9.9599,-0.0479,0.7508,-0.2212,-0.4952
15527,-1.7023,-9.9072,0.0192,0.7224,-0.2177,-0.4836
15535,-1.7502,-9.7971,-0.0934,0.6941,-0.2157,-0.4700
15543,-1.7621,-9.7492,-0.1437,0.6670,-0.2137,-0.4600
15551,-1.7502,-9.7061,0.0215,0.6435,-0.2109,-0.4454
15559,-1.7334,-9.6558,-0.0790,0.6145,-0.2096,-0.4334
15567,-1.7334,-9.5050,-0.1125,0.5883,-0.2048,-0.4190
15576,-1.6855,-9.5098,-0.0694,0.5564,-0.2088,-0.4073
15583,-1.6879,-9.3877,-0.0814,0.5235,-0.2029,-0.3905
15591,-1.7119,-9.3972,-0.0263,0.4970,-0.2025,-0.3766
15599,-1.6664,-9.3206,-0.0934,0.4659,-0.1952,-0.3657
15607,-1.6759,-9.3254,-0.1604,0.4321,-0.1937,-0.3471
15616,-1.6783,-9.2249,-0.0862,0.3996,-0.1905,-0.3315
15623,-1.6065,-9.2105,-0.0120,0.3713,-0.1871,-0.3171
15631,-1.6089,-9.1028,-0.1844,0.3329,-0.1825,-0.2986
15639,-1.5802,-9.0309,-0.1125,0.3023,-0.1781,-0.2847
15647,-1.5993,-9.0166,-0.0838,0.2663,-0.1663,-0.2615
15655,-1.6305,-8.9878,-0.1006,0.2305,-0.1628,-0.2450
15664,-1.6017,-8.9256,-0.1030,0.2000,-0.1548,-0.2262
15671,-1.6568,-8.9256,-0.2442,0.1637,-0.1438,-0.2060
15679,-1.6185,-8.8753,-0.1963,0.1300,-0.1367,-0.1847
15687,-1.6089,-8.8992,-0.1652,0.0925,-0.1244,-0.1648
15695,-1.6712,-8.9016,-0.1484,0.0622,-0.1146,-0.1424
15704,-1.6568,-8.8657,-0.1508,0.0250,-0.1022,-0.1195
15711,-1.6305,-8.8705,-0.1580,-0.0085,-0.0862,-0.0978
15719,-1.6017,-8.8825,-0.1293,-0.0424,-0.0721,-0.0755
15727,-1.5993,-8.8178,-0.1053,-0.0759,-0.0580,-0.0489
15735,-1.6400,-8.8346,-0.1030,-0.1106,-0.0353,-0.0289
15744,-1.6137,-8.8921,-0.1724,-0.1443,-0.0204,-0.0033
15752,-1.6352,-8.8083,-0.0886,-0.1781,0.0015,0.0191
15759,-1.6185,-8.8681,-0.1125,-0.2106,0.0220,0.0441
15767,-1.6472,-8.8969,-0.0383,-0.2430,0.0454,0.0661
15775,-1.6233,-8.8897,-0.0407,-0.2745,0.0703,0.0902
15783,-1.6783,-8.9399,-0.0527,-0.3036,0.0969,0.1155
15792,-1.6257,-8.9160,-0.0694,-0.3349,0.1220,0.1418
15799,-1.6951,-9.0644,-0.0263,-0.3629,0.1478,0.1596
15807,-1.6328,-9.1004,-0.0455,-0.3946,0.1768,0.1828
15815,-1.6017,-9.0980,-0.0790,-0.4234,0.2093,0.2046
15823,-1.6688,-9.1458,-0.0168,-0.4534,0.2332,0.2252
15832,-1.6424,-9.1506,-0.1030,-0.4840,0.2603,0.2441
15839,-1.6448,-9.1722,-0.0383,-0.5124,0.2906,0.2626
15847,-1.7310,-9.2608,-0.0910,-0.5383,0.3132,0.2817
15855,-1.6161,-9.2584,-0.0718,-0.5658,0.3428,0.2986
15863,-1.6688,-9.3446,-0.0503,-0.5881,0.3669,0.3162
15872,-1.6903,-9.4715,-0.0718,-0.6129,0.3882,0.3352
15880,-1.7023,-9.5074,0.0311,-0.6368,0.4122,0.3500
15887,-1.7190,-9.5361,0.0910,-0.6546,0.4335,0.3684
15895,-1.6975,-9.6127,0.0407,-0.6804,0.4483,0.3809
15903,-1.7095,-9.7205,0.0144,-0.6979,0.4640,0.3954
15911,-1.7693,-9.7827,0.0000,-0.7216,0.4832,0.4112
15920,-1.7621,-9.8617,0.0910,-0.7414,0.4976,0.4234
15927,-1.7717,-9.9216,0.0000,-0.7631,0.5116,0.4349
15935,-1.7693,-9.9814,0.0096,-0.7854,0.5253,0.4461
15943,-1.7909,-10.0628,0.0694,-0.8033,0.5349,0.4596
15951,-1.8052,-10.1801,0.0575,-0.8236,0.5429,0.4732
15960,-1.7549,-10.2256,0.0790,-0.8392,0.5545,0.4799
15968,-1.8076,-10.3190,0.0072,-0.8628,0.5560,0.4876
15975,-1.7430,-10.3908,0.1580,-0.8816,0.5658,0.4951
15983,-1.8076,-10.4172,0.1700,-0.9010,0.5710,0.5048
15991,-1.8531,-10.5010,0.0814,-0.9220,0.5712,0.5119
16000,-1.8507,-10.6135,0.1125,-0.9369,0.5734,0.5196
16008,-1.8938,-10.6757,0.1077,-0.9623,0.5729,0.5281
16015,-1.8603,-10.7212,0.0718,-0.9798,0.5713,0.5339
16023,-1.8938,-10.7931,0.1844,-0.9954,0.5674,0.5419
16031,-1.8411,-10.8146,0.1149,-1.0147,0.5614,0.5485
16039,-1.9656,-10.8409,0.1077,-1.0325,0.5570,0.5552
16048,-1.9106,-11.0061,0.1197,-1.0507,0.5533,0.5616
16056,-1.9561,-11.0277,0.1604,-1.0685,0.5468,0.5685
16063,-1.9656,-11.0684,0.0982,-1.0817,0.5396,0.5713
16071,-1.9513,-11.0852,0.1269,-1.1017,0.5320,0.5757
16079,-1.9728,-11.1833,0.1676,-1.1234,0.5187,0.5813
16088,-1.9585,-11.1785,0.0958,-1.1361,0.5088,0.5897
16096,-1.9704,-11.2647,0.1939,-1.1547,0.4992,0.5939
16103,-1.9585,-11.3318,0.1796,-1.1711,0.4915,0.5969
16111,-1.9920,-11.4036,0.1173,-1.1862,0.4846,0.6039
16119,-2.0494,-11.3605,0.1700,-1.2007,0.4731,0.6083
16128,-1.9944,-11.4754,0.1796,-1.2143,0.4599,0.6117
16136,-1.9585,-11.5185,0.1987,-1.2273,0.4571,0.6157
16144,-1.9872,-11.5065,0.1676,-1.2376,0.4473,0.6195
16151,-2.0087,-11.5257,0.2107,-1.2478,0.4397,0.6242
16159,-1.9872,-11.6071,0.1652,-1.2568,0.4310,0.6278
16167,-2.0518,-11.6167,0.2227,-1.2626,0.4187,0.6303
16176,-1.9561,-11.6191,0.3280,-1.2649,0.4094,0.6330
16184,-1.9680,-11.6981,0.2634,-1.2697,0.3985,0.6390
16191,-2.0207,-11.6286,0.2346,-1.2750,0.3882,0.6410
16199,-1.9920,-11.6310,0.2514,-1.2774,0.3792,0.6450
16207,-2.0614,-11.7053,0.2514,-1.2777,0.3741,0.6458
16216,-1.9752,-11.6310,0.1963,-1.2804,0.3680,0.6484
16224,-2.0016,-11.6382,0.2538,-1.2758,0.3592,0.6462
16232,-2.0016,-11.6574,0.2251,-1.2704,0.3532,0.6507
16239,-1.9896,-11.6526,0.2586,-1.2689,0.3455,0.6450
16247,-2.0686,-11.5472,0.3400,-1.2606,0.3360,0.6460
16256,-2.0087,-11.5640,0.2849,-1.2542,0.3341,0.6459
16264,-1.9704,-11.5664,0.3519,-1.2480,0.3240,0.6431
16272,-1.9369,-11.5688,0.2825,-1.2367,0.3203,0.6400
16279,-1.9489,-11.5017,0.2394,-1.2284,0.3102,0.6347
16287,-1.9704,-11.5401,0.2418,-1.2173,0.3120,0.6331
16295,-1.8699,-11.4179,0.2658,-1.2087,0.3058,0.6261
16304,-1.8531,-11.3533,0.2083,-1.1959,0.2955,0.6222
16312,-1.9297,-11.3078,0.3232,-1.1855,0.2987,0.6182
16320,-1.9034,-11.2982,0.1987,-1.1731,0.2948,0.6134
16327,-1.9225,-11.2647,0.2658,-1.1614,0.2868,0.6059
16335,-1.8316,-11.2480,0.3065,-1.1457,0.2874,0.5990
16344,-1.8411,-11.1594,0.2346,-1.1323,0.2821,0.5934
16352,-1.8651,-11.0923,0.2897,-1.1175,0.2823,0.5873
16360,-1.8890,-11.0684,0.2921,-1.1049,0.2754,0.5792
16367,-1.8292,-11.0540,0.2849,-1.0876,0.2771,0.5736
16375,-1.8028,-10.9295,0.2466,-1.0698,0.2767,0.5664
16384,-1.8627,-10.8697,0.2203,-1.0564,0.2763,0.5580
16392,-1.8220,-10.8314,0.1772,-1.0405,0.2751,0.5492
16400,-1.7573,-10.7236,0.1915,-1.0215,0.2809,0.5446
16408,-1.7933,-10.7188,0.3352,-1.0042,0.2791,0.5373
16415,-1.7597,-10.6326,0.2418,-0.9876,0.2809,0.5313
16423,-1.7526,-10.5584,0.2921,-0.9689,0.2842,0.5219
16432,-1.7502,-10.5321,0.2921,-0.9467,0.2791,0.5125
16440,-1.7645,-10.4818,0.2538,-0.9250,0.2821,0.5065
16448,-1.6927,-10.3430,0.3017,-0.9028,0.2823,0.4999
16455,-1.6927,-10.3262,0.2227,-0.8809,0.2830,0.4916
16463,-1.6352,-10.2161,0.1820,-0.8568,0.2821,0.4874
16472,-1.6903,-10.1682,0.3017,-0.8370,0.2814,0.4766
16480,-1.6424,-10.1586,0.3041,-0.8108,0.2846,0.4703
16488,-1.6855,-10.0102,0.1508,-0.7811,0.2807,0.4575
16496,-1.6568,-9.9527,0.2873,-0.7590,0.2791,0.4482
16503,-1.6233,-9.9407,0.3065,-0.7292,0.2794,0.4399
16512,-1.6089,-9.8569,0.3112,-0.7069,0.2722,0.4287
16520,-1.6161,-9.8402,0.2658,-0.6781,0.2674,0.4186
16528,-1.5634,-9.7516,0.2825,-0.6475,0.2631,0.4069
16536,-1.5490,-9.6510,0.2179,-0.6197,0.2603,0.3956
16543,-1.5682,-9.6175,0.2873,-0.5872,0.2521,0.3838
16551,-1.5802,-9.4978,0.2586,-0.5518,0.2481,0.3698
16560,-1.5371,-9.5098,0.3615,-0.5219,0.2381,0.3575
16568,-1.5227,-9.4332,0.3280,-0.4899,0.2281,0.3433
16576,-1.5251,-9.3733,0.2897,-0.4541,0.2196,0.3311
16583,-1.5083,-9.3326,0.3256,-0.4190,0.2086,0.3170
16591,-1.5083,-9.3518,0.2753,-0.3862,0.1969,0.3022
16600,-1.5299,-9.2296,0.3783,-0.3493,0.1841,0.2867
16608,-1.4365,-9.2416,0.2274,-0.3152,0.1703,0.2705
16616,-1.4246,-9.1722,0.3232,-0.2801,0.1624,0.2551
16624,-1.4629,-9.1147,0.3017,-0.2414,0.1478,0.2358
16631,-1.4988,-9.1267,0.1987,-0.2032,0.1336,0.2214
16640,-1.4820,-9.0668,0.3184,-0.1647,0.1194,0.2056
16648,-1.5012,-9.1147,0.2179,-0.1274,0.1051,0.1877
16656,-1.4844,-9.0429,0.2227,-0.0914,0.0897,0.1721
16664,-1.4868,-9.0094,0.2969,-0.0521,0.0735,0.1577
16671,-1.4341,-9.0381,0.2873,-0.0141,0.0598,0.1392
16679,-1.4437,-9.0668,0.2346,0.0242,0.0434,0.1239
16688,-1.5299,-9.1004,0.2011,0.0637,0.0280,0.1071
16696,-1.4150,-9.0405,0.2801,0.1002,0.0104,0.0914
16704,-1.4317,-9.0908,0.2921,0.1400,-0.0072,0.0761
16712,-1.4605,-9.0932,0.3232,0.1765,-0.0260,0.0597
16719,-1.4054,-9.0740,0.2490,0.2160,-0.0434,0.0474
16728,-1.4341,-9.1099,0.1915,0.2515,-0.0598,0.0302
16736,-1.4988,-9.1554,0.3424,0.2898,-0.0795,0.0163
16744,-1.5299,-9.1363,0.2418,0.3263,-0.1027,0.0009
16752,-1.4533,-9.2009,0.2921,0.3609,-0.1182,-0.0123
16759,-1.5275,-9.2344,0.2658,0.4001,-0.1384,-0.0276
16768,-1.4341,-9.2153,0.3136,0.4299,-0.1617,-0.0422
16776,-1.4748,-9.2225,0.2538,0.4610,-0.1787,-0.0549
16784,-1.5131,-9.3398,0.2801,0.4975,-0.2040,-0.0691
16792,-1.5131,-9.3661,0.2562,0.5300,-0.2260,-0.0873
16800,-1.5012,-9.4619,0.2059,0.5602,-0.2490,-0.0963
16807,-1.5443,-9.4571,0.1987,0.5883,-0.2726,-0.1132
16816,-1.4988,-9.5241,0.2011,0.6214,-0.2954,-0.1276
16824,-1.5802,-9.5337,0.1269,0.6504,-0.3180,-0.1396
16832,-1.5634,-9.6774,0.1820,0.6771,-0.3423,-0.1597
16840,-1.5658,-9.6678,0.1628,0.7019,-0.3624,-0.1735
16847,-1.5921,-9.6845,0.2107,0.7257,-0.3828,-0.1899
16856,-1.5538,-9.7612,0.1772,0.7548,-0.4093,-0.2054
16864,-1.5778,-9.8641,0.1676,0.7747,-0.4326,-0.2245
16872,-1.6975,-9.8354,0.1844,0.7983,-0.4509,-0.2373
16880,-1.6544,-9.9168,0.1293,0.8159,-0.4668,-0.2550
16888,-1.6376,-10.0030,0.1628,0.8376,-0.4858,-0.2735
16896,-1.7095,-10.1538,0.1508,0.8559,-0.5039,-0.2860
16904,-1.6496,-10.1730,0.1317,0.8744,-0.5232,-0.3012
16912,-1.6448,-10.1969,0.1149,0.8946,-0.5392,-0.3184
16920,-1.7166,-10.3262,0.0814,0.9069,-0.5568,-0.3368
16928,-1.7597,-10.3621,0.1053,0.9225,-0.5689,-0.3515
16935,-1.7430,-10.4435,0.0982,0.9286,-0.5845,-0.3629
16944,-1.7262,-10.5058,0.0742,0.9445,-0.5942,-0.3797
16952,-1.6999,-10.6422,0.0694,0.9554,-0.6073,-0.3933
16960,-1.7980,-10.6398,0.0263,0.9714,-0.6178,-0.4042
16968,-1.8028,-10.6374,0.0718,0.9851,-0.6294,-0.4214
16976,-1.7909,-10.7164,0.1556,0.9930,-0.6399,-0.4314
16984,-1.7573,-10.7859,0.0431,1.0022,-0.6422,-0.4462
16992,-1.7885,-10.8194,0.0910,1.0082,-0.6498,-0.4599
17000,-1.8651,-10.9630,0.0024,1.0224,-0.6562,-0.4715
17008,-1.8794,-10.9391,0.0192,1.0307,-0.6594,-0.4839
17016,-1.8866,-10.9918,-0.0144,1.0405,-0.6708,-0.4938
17024,-1.8316,-11.0899,-0.0096,1.0507,-0.6678,-0.5044
17032,-1.8507,-11.0852,-0.0192,1.0547,-0.6644,-0.5191
17040,-1.8842,-11.1378,0.0072,1.0656,-0.6623,-0.5301
17048,-1.9010,-11.1402,0.0144,1.0722,-0.6607,-0.5401
17056,-1.9345,-11.2168,0.0527,1.0785,-0.6571,-0.5474
17064,-1.9010,-11.2264,-0.0096,1.0868,-0.6596,-0.5578
17072,-1.9321,-11.2527,0.0192,1.0938,-0.6528,-0.5689
17080,-1.8723,-11.2911,0.0048,1.0978,-0.6436,-0.5778
17088,-1.9465,-11.3461,-0.0215,1.1054,-0.6375,-0.5881
17096,-1.9800,-11.3653,0.0599,1.1107,-0.6326,-0.5981
17104,-1.9225,-11.4012,0.0335,1.1162,-0.6182,-0.6055
17112,-1.9609,-11.3820,-0.0192,1.1237,-0.6130,-0.6131
17120,-1.9656,-11.4419,0.0814,1.1267,-0.6021,-0.6195
17128,-1.9704,-11.4826,0.0694,1.1295,-0.5949,-0.6315
17136,-1.9609,-11.4515,0.0910,1.1309,-0.5786,-0.6391
17144,-1.9441,-11.4658,-0.0072,1.1349,-0.5710,-0.6454
17153,-2.0279,-11.4586,-0.0311,1.1343,-0.5568,-0.6530
17160,-2.0279,-11.4778,0.0215,1.1343,-0.5429,-0.6588
17168,-1.9465,-11.4970,-0.0359,1.1330,-0.5345,-0.6658
17176,-2.0039,-11.4730,-0.0215,1.1330,-0.5176,-0.6696
17184,-1.9489,-11.4491,0.0096,1.1334,-0.5051,-0.6743
17192,-1.9656,-11.4802,-0.0766,1.1289,-0.4919,-0.6776
17200,-1.9968,-11.3868,-0.1437,1.1202,-0.4730,-0.6800
17208,-2.0207,-11.4036,-0.0958,1.1097,-0.4596,-0.6825
17216,-1.9441,-11.4347,-0.1221,1.1010,-0.4449,-0.6828
17224,-1.9154,-11.4299,0.0814,1.0958,-0.4327,-0.6848
17232,-1.9872,-11.3222,-0.1006,1.0854,-0.4209,-0.6825
17241,-1.9848,-11.2934,-0.0527,1.0761,-0.4056,-0.6831
17248,-1.9249,-11.2456,-0.0910,1.0600,-0.3889,-0.6843
17256,-1.9489,-11.2456,-0.0239,1.0468,-0.3720,-0.6852
17264,-1.9752,-11.2216,-0.0287,1.0316,-0.3540,-0.6829
17272,-1.9728,-11.1282,-0.1269,1.0170,-0.3516,-0.6783
17281,-1.9872,-11.0995,-0.0359,1.0091,-0.3420,-0.6698
17288,-1.9465,-10.9726,0.0000,0.9923,-0.3252,-0.6666
17296,-1.9297,-10.9846,0.0072,0.9795,-0.3146,-0.6591
17304,-1.9130,-10.8960,-0.0263,0.9574,-0.3007,-0.6556
17312,-1.9058,-10.9511,-0.0335,0.9457,-0.2927,-0.6506
17320,-1.9656,-10.8793,-0.0311,0.9336,-0.2859,-0.6403
17328,-1.9034,-10.7978,-0.1006,0.9165,-0.2811,-0.6359
17336,-1.8986,-10.7332,-0.0575,0.9004,-0.2735,-0.6263
17344,-1.8675,-10.6590,-0.0215,0.8808,-0.2646,-0.6177
17352,-1.8435,-10.5632,-0.0575,0.8609,-0.2539,-0.6055
17360,-1.8890,-10.5489,-0.0958,0.8415,-0.2406,-0.6013
17369,-1.9106,-10.5249,-0.1125,0.8231,-0.2394,-0.5899
17376,-1.8723,-10.3908,-0.1221,0.8087,-0.2362,-0.5792
17384,-1.8675,-10.3430,0.0239,0.7878,-0.2360,-0.5702
17392,-1.8842,-10.3142,-0.0646,0.7681,-0.2257,-0.5557
17400,-1.8076,-10.2975,-0.0527,0.7441,-0.2270,-0.5465
17409,-1.8579,-10.2017,-0.0694,0.7241,-0.2212,-0.5337
17416,-1.8148,-10.0892,-0.0622,0.7039,-0.2141,-0.5247
17424,-1.7693,-10.1394,-0.0239,0.6844,-0.2120,-0.5089
17432,-1.8028,-10.0317,-0.0551,0.6603,-0.2161,-0.4980
17440,-1.7693,-9.9934,-0.0144,0.6388,-0.2098,-0.4856
17448,-1.7621,-9.8976,-0.1293,0.6153,-0.2096,-0.4718
17457,-1.7861,-9.7731,-0.1269,0.5894,-0.2068,-0.4568
17464,-1.7645,-9.7612,-0.0072,0.5674,-0.2049,-0.4439
17472,-1.7430,-9.7061,-0.0144,0.5417,-0.2002,-0.4309
17480,-1.7095,-9.6391,-0.0838,0.5224,-0.2017,-0.4171
17488,-1.7358,-9.5624,-0.1006,0.4956,-0.1972,-0.4044
17497,-1.7382,-9.5170,-0.0503,0.4671,-0.1970,-0.3880
17504,-1.7095,-9.4499,-0.1604,0.4406,-0.1939,-0.3737
17512,-1.6855,-9.4403,-0.1293,0.4114,-0.1852,-0.3600
17520,-1.6664,-9.3398,-0.1772,0.3826,-0.1776,-0.3463
17528,-1.6951,-9.2847,-0.0383,0.3544,-0.1724,-0.3289
17537,-1.6855,-9.3446,-0.0646,0.3235,-0.1676,-0.3120
17545,-1.6735,-9.2344,-0.1508,0.2967,-0.1628,-0.2970
17552,-1.7142,-9.1626,-0.0670,0.2689,-0.1580,-0.2767
17560,-1.6879,-9.1842,-0.0838,0.2403,-0.1480,-0.2579
17568,-1.6424,-9.1195,-0.1317,0.2084,-0.1382,-0.2415
17576,-1.6376,-9.0836,-0.0790,0.1791,-0.1282,-0.2269
17585,-1.6352,-9.0453,-0.0215,0.1504,-0.1172,-0.2056
17592,-1.6161,-9.0956,-0.1269,0.1232,-0.1069,-0.1887
17600,-1.6113,-9.0501,-0.0694,0.0869,-0.0959,-0.1700
17608,-1.6472,-8.9783,-0.2035,0.0578,-0.0847,-0.1448
17616,-1.6592,-9.0070,-0.1484,0.0286,-0.0674,-0.1278
17625,-1.6089,-8.9878,-0.0599,-0.0024,-0.0570,-0.1108
17633,-1.6664,-9.0214,-0.0670,-0.0306,-0.0408,-0.0905
17640,-1.6424,-8.9830,-0.1628,-0.0574,-0.0270,-0.0667
17648,-1.6257,-9.0094,-0.0622,-0.0883,-0.0084,-0.0438
17656,-1.6352,-9.0381,-0.0862,-0.1156,0.0061,-0.0233
17665,-1.6568,-9.0094,-0.0407,-0.1447,0.0264,0.0016
17673,-1.7142,-8.9830,-0.1293,-0.1756,0.0485,0.0204
17680,-1.7047,-9.0237,-0.0694,-0.2061,0.0731,0.0428
17688,-1.6688,-9.0812,-0.0551,-0.2280,0.0935,0.0657
17696,-1.7454,-9.0621,-0.0503,-0.2551,0.1119,0.0894
17704,-1.6783,-9.1458,-0.0910,-0.2787,0.1395,0.1130
17713,-1.6305,-9.1075,-0.1006,-0.3070,0.1628,0.1355
17721,-1.6807,-9.1818,-0.0934,-0.3328,0.1907,0.1515
17728,-1.6592,-9.2416,-0.0455,-0.3581,0.2200,0.1757
17736,-1.6568,-9.2632,-0.0287,-0.3840,0.2394,0.1961
17744,-1.7023,-9.2081,-0.0048,-0.4101,0.2629,0.2166
17753,-1.6712,-9.3063,-0.1173,-0.4349,0.2802,0.2353
17761,-1.6640,-9.3206,0.0072,-0.4587,0.3063,0.2531
17768,-1.6807,-9.3805,-0.0838,-0.4843,0.3268,0.2750
17776,-1.6951,-9.5050,-0.0024,-0.5051,0.3452,0.2891
17784,-1.6975,-9.4523,-0.0407,-0.5284,0.3668,0.3068
17793,-1.7166,-9.5146,-0.0024,-0.5504,0.3852,0.3232
17801,-1.7310,-9.5720,0.0120,-0.5718,0.4000,0.3397
17809,-1.6999,-9.6175,0.0455,-0.5903,0.4124,0.3585
17816,-1.6831,-9.6845,0.0383,-0.6154,0.4235,0.3725
17824,-1.7741,-9.7181,-0.0144,-0.6310,0.4334,0.3864
17832,-1.7526,-9.7564,-0.0168,-0.6554,0.4410,0.4000
17841,-1.7286,-9.8761,0.0383,-0.6740,0.4542,0.4161
17849,-1.7621,-9.8569,0.0527,-0.6909,0.4571,0.4274
17856,-1.8028,-9.9862,0.1700,-0.7077,0.4634,0.4418
17864,-1.7717,-9.9862,0.0359,-0.7286,0.4660,0.4502
17872,-1.7358,-10.0916,0.0407,-0.7457,0.4719,0.4610
17881,-1.7861,-10.1801,0.0311,-0.7646,0.4774,0.4670
17889,-1.7861,-10.2232,0.0790,-0.7835,0.4750,0.4783
17897,-1.8244,-10.2663,0.0335,-0.8041,0.4788,0.4879
17904,-1.8651,-10.3382,0.1101,-0.8183,0.4756,0.4924
17912,-1.8268,-10.3358,0.1293,-0.8380,0.4750,0.5035
17921,-1.8364,-10.4531,0.0455,-0.8551,0.4744,0.5121
17929,-1.8675,-10.4698,0.0862,-0.8692,0.4747,0.5224
17937,-1.9058,-10.5560,0.0982,-0.8897,0.4739,0.5297
17944,-1.8866,-10.6279,0.1077,-0.9069,0.4742,0.5377
17952,-1.8699,-10.6757,0.0910,-0.9220,0.4658,0.5449
17960,-1.8962,-10.7643,0.1508,-0.9340,0.4646,0.5522
17969,-1.8627,-10.8170,0.0670,-0.9507,0.4557,0.5600
17977,-1.8794,-10.7931,0.0958,-0.9661,0.4515,0.5646
17984,-1.8914,-10.8816,0.1149,-0.9808,0.4495,0.5762
17992,-1.9082,-10.8793,0.1891,-0.9956,0.4418,0.5792
18000,-1.9896,-11.0133,0.1030,-1.0107,0.4354,0.5907
18009,-1.9656,-10.9918,0.1676,-1.0241,0.4295,0.5946
18017,-1.9201,-11.0636,0.1077,-1.0355,0.4247,0.6034
18025,-1.9225,-11.0971,0.1891,-1.0451,0.4174,0.6058
18032,-2.0039,-11.1378,0.1844,-1.0637,0.4161,0.6089
18040,-1.9106,-11.1235,0.1221,-1.0754,0.4076,0.6150
18049,-1.9345,-11.1618,0.1724,-1.0806,0.4010,0.6189
18057,-2.0111,-11.2168,0.1317,-1.0910,0.3912,0.6246
18065,-1.9489,-11.2049,0.1820,-1.0961,0.3818,0.6330
18072,-1.9537,-11.2216,0.2418,-1.1017,0.3712,0.6347
18080,-1.9369,-11.2288,0.1628,-1.1110,0.3701,0.6372
18088,-1.9585,-11.3030,0.1413,-1.1150,0.3596,0.6467
18097,-1.9273,-11.3030,0.1389,-1.1203,0.3471,0.6450
18105,-1.9704,-11.3126,0.2251,-1.1222,0.3449,0.6510
18113,-1.9130,-11.3102,0.2538,-1.1265,0.3376,0.6494
18120,-1.9321,-11.2934,0.1939,-1.1273,0.3313,0.6507
18128,-1.9680,-11.3342,0.2897,-1.1263,0.3254,0.6504
18137,-1.9225,-11.3222,0.2322,-1.1233,0.3138,0.6520
18145,-1.9489,-11.2575,0.1891,-1.1227,0.3136,0.6538
18153,-2.0016,-11.3030,0.2658,-1.1226,0.3066,0.6512
18160,-1.9920,-11.3102,0.2705,-1.1157,0.2994,0.6555
18168,-1.8723,-11.2958,0.3256,-1.1127,0.2952,0.6512
18177,-1.9010,-11.2695,0.1748,-1.1050,0.2898,0.6482
18185,-1.9513,-11.2504,0.1484,-1.0982,0.2847,0.6484
18193,-1.9656,-11.2551,0.1604,-1.0897,0.2823,0.6450
18201,-1.8531,-11.2144,0.2753,-1.0824,0.2807,0.6424
18208,-1.8842,-11.1211,0.2394,-1.0692,0.2761,0.6390
18216,-1.7909,-11.1187,0.2729,-1.0593,0.2779,0.6344
18225,-1.8411,-11.1330,0.1867,-1.0465,0.2723,0.6307
18233,-1.8411,-11.0397,0.1820,-1.0384,0.2718,0.6243
18241,-1.8699,-11.0397,0.2873,-1.0236,0.2702,0.6211
18248,-1.8196,-10.9822,0.3184,-1.0127,0.2679,0.6175
18256,-1.8411,-10.9966,0.3089,-0.9998,0.2666,0.6075
18265,-1.8842,-10.8912,0.2538,-0.9868,0.2663,0.6037
18273,-1.8507,-10.8840,0.1963,-0.9695,0.2625,0.5991
18281,-1.7645,-10.7883,0.2179,-0.9578,0.2630,0.5918
18289,-1.7573,-10.7859,0.1915,-0.9433,0.2642,0.5844
18296,-1.8268,-10.7284,0.2322,-0.9306,0.2619,0.5770
18305,-1.7621,-10.6326,0.1844,-0.9137,0.2638,0.5724
18313,-1.7837,-10.5776,0.1891,-0.8970,0.2605,0.5632
18321,-1.7334,-10.5010,0.3232,-0.8803,0.2563,0.5553
18329,-1.7286,-10.5177,0.2610,-0.8643,0.2558,0.5473
18336,-1.7262,-10.3789,0.2562,-0.8420,0.2562,0.5377
18344,-1.7406,-10.4028,0.2203,-0.8295,0.2535,0.5308
18353,-1.6927,-10.3070,0.2969,-0.8107,0.2495,0.5217
18361,-1.7047,-10.2975,0.2274,-0.7887,0.2489,0.5123
18369,-1.6783,-10.1969,0.2753,-0.7714,0.2474,0.5019
18377,-1.6448,-10.2017,0.2274,-0.7509,0.2407,0.4947
18384,-1.6879,-10.1658,0.2274,-0.7326,0.2362,0.4887
18393,-1.6903,-9.9958,0.2227,-0.7084,0.2368,0.4744
18401,-1.7262,-10.0006,0.1987,-0.6877,0.2318,0.4671
18409,-1.6257,-10.0269,0.2610,-0.6659,0.2280,0.4558
18417,-1.6113,-9.9096,0.2634,-0.6395,0.2237,0.4434
18424,-1.6400,-9.8474,0.2682,-0.6213,0.2148,0.4374
18433,-1.5969,-9.8258,0.3112,-0.5937,0.2102,0.4265
18441,-1.5634,-9.8019,0.2251,-0.5682,0.2070,0.4145
18449,-1.5874,-9.6319,0.2251,-0.5400,0.2001,0.4028
18457,-1.5682,-9.7061,0.2682,-0.5140,0.1935,0.3901
18465,-1.5538,-9.6510,0.2682,-0.4858,0.1872,0.3778
18472,-1.5155,-9.5313,0.2873,-0.4575,0.1773,0.3636
18481,-1.5802,-9.5385,0.2729,-0.4274,0.1644,0.3508
18489,-1.5012,-9.4834,0.2490,-0.3997,0.1608,0.3413
18497,-1.5323,-9.4715,0.2346,-0.3687,0.1508,0.3259
18505,-1.5682,-9.4212,0.1484,-0.3364,0.1430,0.3082
18512,-1.5107,-9.4020,0.2873,-0.3076,0.1306,0.2976
18521,-1.4892,-9.3206,0.3711,-0.2751,0.1174,0.2843
18529,-1.4700,-9.2967,0.2969,-0.2429,0.1108,0.2646
18537,-1.4605,-9.2895,0.3136,-0.2077,0.0990,0.2510
18545,-1.4796,-9.2512,0.2251,-0.1744,0.0871,0.2341
18552,-1.4916,-9.2105,0.3112,-0.1455,0.0761,0.2197
18561,-1.4940,-9.2296,0.3783,-0.1061,0.0621,0.2005
18569,-1.4581,-9.2153,0.2682,-0.0751,0.0536,0.1835
18577,-1.4557,-9.1770,0.3232,-0.0446,0.0373,0.1652
18585,-1.4653,-9.1937,0.2873,-0.0108,0.0254,0.1523
18593,-1.4581,-9.2057,0.2514,0.0234,0.0121,0.1352
