Timestamp,AccelX,AccelY,AccelZ,GyroX,GyroY,GyroZ
407,-0.9768,-3.7733,9.0668,-0.0266,-0.0405,0.0485
414,-0.9385,-3.8355,9.1506,-0.0234,-0.0333,0.0506
422,-0.8356,-3.7996,9.0836,-0.0250,-0.0232,0.0522
431,-0.8452,-3.7302,9.3637,-0.0192,-0.0051,0.0530
438,-0.7877,-3.7565,9.3996,-0.0157,-0.0003,0.0520
446,-0.7542,-3.7589,9.4930,0.0003,0.0045,0.0434
454,-0.7230,-3.6895,9.3374,0.0288,0.0221,0.0301
462,-0.6297,-3.7804,9.3063,0.0405,0.0386,0.0195
471,-0.6201,-3.8427,9.0549,0.0253,0.0376,0.0072
479,-0.7901,-3.8930,9.0453,0.0013,0.0112,-0.0075
486,-0.9385,-3.7852,9.0214,-0.0288,-0.0290,-0.0045
494,-1.1372,-3.6919,9.2153,-0.0480,-0.0648,0.0064
502,-1.2546,-3.6655,9.2895,-0.0506,-0.0626,0.0301
510,-1.1301,-3.7158,9.2536,-0.0437,-0.0216,0.0450
519,-1.0415,-3.6464,9.2392,-0.0266,0.0472,0.0544
526,-1.0558,-3.6057,9.2536,-0.0168,0.0767,0.0655
534,-1.0151,-3.6176,9.3063,-0.0104,0.0711,0.0775
542,-0.9194,-3.6990,9.2201,-0.0069,0.0453,0.0778
550,-0.7733,-3.7493,9.2847,0.0013,0.0389,0.0725
559,-0.7207,-3.8379,9.3302,-0.0037,0.0179,0.0621
567,-0.6991,-3.8331,9.4284,0.0131,-0.0147,0.0493
574,-0.7901,-3.8307,9.3230,0.0400,-0.0147,0.0373
582,-0.7757,-3.8092,9.4068,0.0538,0.0080,0.0338
590,-0.9744,-3.7876,9.3685,0.0562,0.0205,0.0333
599,-0.9122,-3.7852,9.1626,0.0509,0.0312,0.0437
607,-0.8092,-3.6440,9.0405,0.0240,0.0437,0.0474
614,-0.7494,-3.6990,9.1123,0.0075,0.0173,0.0464
622,-0.8068,-3.6416,9.2991,-0.0107,-0.0269,0.0397
630,-0.8188,-3.7517,9.3087,-0.0085,-0.0512,0.0370
638,-0.8260,-3.7900,9.2727,0.0051,-0.0517,0.0314
647,-0.7685,-3.8595,9.2440,0.0077,-0.0416,0.0261
655,-0.8595,-3.8427,8.9950,0.0072,-0.0325,0.0237
662,-0.9146,-3.8547,8.8131,-0.0027,-0.0115,0.0179
670,-1.0151,-3.8331,8.9495,-0.0157,-0.0218,0.0205
678,-0.9218,-3.7469,9.1698,-0.0163,-0.0469,0.0216
687,-0.7781,-3.7397,9.3637,0.0035,-0.0405,0.0171
695,-0.7398,-3.7254,9.3805,0.0245,-0.0005,0.0168
702,-0.6847,-3.6895,9.3589,0.0400,0.0512,0.0035
710,-0.8954,-3.6464,9.2177,0.0349,0.0970,0.0043
718,-1.0056,-3.6081,9.0908,0.0280,0.1061,0.0109
727,-0.9960,-3.6224,9.0453,0.0061,0.0935,0.0288
735,-0.9816,-3.6775,8.9519,-0.0120,0.0690,0.0381
743,-1.0127,-3.7326,8.9376,-0.0280,0.0378,0.0466
750,-0.9553,-3.7182,9.1099,-0.0408,-0.0184,0.0541
758,-0.8475,-3.7014,9.2751,-0.0424,-0.0690,0.0570
766,-0.8547,-3.6536,9.2129,-0.0344,-0.1026,0.0482
775,-0.8092,-3.6847,9.1554,-0.0282,-0.1023,0.0434
783,-0.8092,-3.7062,9.2416,-0.0187,-0.0938,0.0365
790,-0.7230,-3.7613,9.2799,-0.0032,-0.0685,0.0232
798,-0.7542,-3.8259,9.2009,-0.0035,-0.0418,0.0187
806,-0.7278,-3.7709,9.1818,0.0019,-0.0253,0.0101
815,-0.8691,-3.7445,9.0932,0.0120,-0.0149,0.0091
823,-0.9601,-3.7541,9.0932,0.0096,-0.0008,0.0141
830,-0.8930,-3.7852,9.1219,0.0077,-0.0019,0.0171
838,-0.9170,-3.7565,9.1794,-0.0019,0.0005,0.0253
846,-0.8380,-3.7445,9.1578,0.0000,0.0152,0.0216
855,-0.8212,-3.7517,9.2847,0.0077,0.0232,0.0200
863,-0.7614,-3.7565,9.4164,0.0147,0.0112,0.0179
871,-0.7111,-3.7996,9.2129,-0.0120,0.0000,0.0139
878,-0.7350,-3.8475,9.1458,-0.0392,-0.0272,0.0053
886,-0.9218,-3.7733,9.1866,-0.0554,-0.0626,0.0045
894,-0.9122,-3.7804,9.2177,-0.0661,-0.0909,0.0085
903,-0.9050,-3.8259,9.2799,-0.0773,-0.0805,0.0147
911,-0.9433,-3.8092,9.3446,-0.0671,-0.0434,0.0226
918,-1.0199,-3.7254,9.2895,-0.0512,0.0112,0.0274
926,-1.0199,-3.7206,9.1889,-0.0336,0.0783,0.0336
934,-0.8691,-3.7158,9.2249,-0.0306,0.1279,0.0384
943,-0.8021,-3.8020,9.2105,-0.0253,0.1282,0.0357
951,-0.8045,-3.7661,9.2751,-0.0352,0.1063,0.0352
959,-0.9481,-3.8140,9.3446,-0.0360,0.0735,0.0381
966,-0.9481,-3.8810,9.4020,-0.0282,0.0605,0.0442
974,-0.9744,-3.8116,9.3087,-0.0163,0.0629,0.0533
983,-0.8882,-3.8451,9.1985,0.0000,0.0735,0.0608
991,-0.9361,-3.8068,9.1363,0.0011,0.0594,0.0634
999,-0.9697,-3.7613,9.3111,0.0059,0.0298,0.0626
1006,-0.8906,-3.7876,9.3853,0.0203,0.0045,0.0645
1014,-0.8452,-3.7948,9.2392,0.0282,0.0091,0.0533
1022,-0.8236,-3.8738,9.2177,0.0352,0.0261,0.0464
1031,-0.8571,-3.8235,9.1842,0.0416,0.0477,0.0378
1039,-0.9744,-3.7565,8.9950,0.0274,0.0658,0.0405
1047,-1.0343,-3.8116,9.0477,0.0205,0.0642,0.0458
1054,-1.0942,-3.7757,8.8873,0.0181,0.0528,0.0530
1062,-0.9529,-3.7781,9.0980,0.0136,0.0506,0.0663
1071,-0.8763,-3.7972,9.1889,0.0208,0.0336,0.0661
1079,-0.7781,-3.7781,9.2919,0.0333,0.0040,0.0560
1087,-0.8811,-3.8068,9.2153,0.0458,-0.0061,0.0485
1094,-0.9098,-3.8331,9.0573,0.0528,-0.0211,0.0362
1102,-0.8787,-3.8475,9.0788,0.0549,-0.0072,0.0322
1111,-0.9864,-3.7781,9.0621,0.0456,0.0037,0.0333
1119,-0.9529,-3.8116,9.0333,0.0365,0.0203,0.0306
1127,-0.9337,-3.7541,8.9759,0.0229,0.0370,0.0349
1135,-0.8954,-3.7278,9.1818,0.0136,0.0258,0.0360
1142,-0.8523,-3.6895,9.4643,0.0232,0.0189,0.0360
1150,-0.8164,-3.7852,9.2967,0.0405,0.0432,0.0221
1159,-0.7877,-3.7637,9.0597,0.0509,0.0858,0.0109
1167,-0.9242,-3.7230,8.8681,0.0426,0.1085,0.0021
1175,-1.0774,-3.6966,8.8490,0.0248,0.0949,0.0021
1182,-1.1732,-3.7565,9.0094,-0.0013,0.0552,0.0197
1190,-1.2378,-3.7302,9.0022,-0.0280,0.0165,0.0424
1199,-1.0918,-3.7421,9.1674,-0.0373,-0.0029,0.0541
1207,-0.9697,-3.8283,9.1674,-0.0434,0.0064,0.0605
1215,-0.8643,-3.7421,9.1842,-0.0442,0.0237,0.0496
1223,-0.9050,-3.6631,8.9376,-0.0418,0.0325,0.0472
1230,-0.9768,-3.6679,8.7891,-0.0512,-0.0021,0.0397
1239,-0.7590,-3.7350,8.6550,-0.0781,-0.1026,0.0248
1247,-0.5722,-3.7852,8.6383,-0.0986,-0.2550,-0.0064
1255,-0.3855,-3.8810,8.6886,-0.1260,-0.3954,-0.0472
1263,-0.3663,-3.8547,8.9064,-0.1495,-0.5415,-0.0858
1270,-0.2442,-4.0127,8.4922,-0.1687,-0.6339,-0.1375
1278,-0.2322,-4.0989,8.4635,-0.1791,-0.6704,-0.1697
1287,-0.1867,-4.3191,8.3629,-0.1727,-0.7325,-0.2017
1295,-0.4238,-4.1611,7.8578,-0.1711,-0.9020,-0.2286
1303,-1.1492,-4.3838,0.8356,-0.5105,-0.9092,-0.2036
1311,-3.9744,-6.4763,2.8587,-0.3379,-0.7512,0.3651
1318,-2.3343,-6.1435,1.6903,-0.4586,-0.8396,1.1367
1327,-1.0822,-4.9608,0.7398,-0.6214,-1.0584,1.4429
1335,-0.7111,-3.5506,-0.5722,-0.7783,-1.1397,1.6435
1343,-0.1772,-3.1915,0.9720,-0.7871,-1.1754,1.7211
1351,0.2729,-2.7342,0.0934,-0.7346,-1.2121,1.6784
1358,0.1556,-2.5953,-0.0599,-0.7703,-1.2596,1.6166
1367,-0.1341,-2.8802,0.3567,-0.7941,-1.4173,1.5591
1375,-0.3926,-3.3040,1.0630,-0.6904,-1.6742,1.5564
1383,-0.4908,-3.9600,1.7693,-0.4191,-1.9446,1.5599
1391,-0.4980,-4.2641,1.9010,-0.0693,-2.2396,1.5420
1399,-0.2370,-4.2737,1.6400,0.2662,-2.4813,1.4789
1406,0.1939,-4.2329,1.1660,0.5542,-2.6031,1.3646
1415,0.5171,-4.2186,0.6871,0.7837,-2.5674,1.1911
1423,0.8739,-4.1515,0.2849,0.9625,-2.4142,0.9542
1431,1.0918,-4.2904,0.0407,1.0864,-2.2332,0.6638
1439,0.9170,-4.3598,0.0239,1.1572,-2.1077,0.3520
1446,0.7614,-4.7070,-0.0838,1.1983,-2.0526,0.0448
1455,0.4836,-4.9823,0.2298,1.2524,-2.0443,-0.2214
1463,0.1724,-5.3750,-0.1915,1.2870,-2.0891,-0.4461
1471,-0.1030,-5.8419,-0.0718,1.2649,-2.1567,-0.6611
1479,-0.4094,-6.3518,-0.1963,1.2497,-2.2015,-0.8204
1486,-0.6800,-6.8426,-0.3663,1.2239,-2.2196,-0.9329
1495,-1.0894,-7.2472,-0.5962,1.1564,-2.1842,-0.9726
1503,-1.4868,-7.4436,-1.1827,0.9875,-2.1093,-0.9294
1511,-1.5562,-7.7476,-2.8395,0.6363,-1.9742,-0.8223
1519,-2.0590,-7.5130,-3.1077,0.0264,-1.7704,-0.6731
1527,-2.5474,-7.1515,-3.5554,-0.6718,-1.5823,-0.3936
1534,-3.1053,-7.0940,-3.7900,-1.4698,-1.4751,0.0117
1543,-3.5123,-7.2592,-3.8307,-2.3395,-1.4530,0.5015
1551,-3.8906,-7.6902,-3.5171,-3.1904,-1.5186,1.0661
1559,-4.0318,-8.4587,-3.0047,-3.9554,-1.6252,1.6904
1567,-3.8499,-9.6127,-2.4469,-4.5925,-1.6926,2.2713
1574,-3.6057,-10.9846,-2.2434,-5.1046,-1.6094,2.8122
1583,-3.3088,-12.7036,-1.6903,-5.5027,-1.4735,3.2812
1591,-3.1627,-14.5184,-1.1133,-5.7617,-1.2628,3.6862
1599,-3.2010,-16.4458,-0.2873,-5.8584,-1.0096,4.0369
1607,-1.9561,-19.5582,-1.4653,-5.9869,-0.6960,4.1749
1615,-2.0973,-21.0067,-0.0766,-6.0423,-0.4282,4.1014
1623,-2.7174,-21.6627,0.0814,-6.0564,-0.1855,4.0468
1631,-2.1572,-23.8654,0.4070,-6.0535,-0.0136,3.9396
1639,-1.0271,-26.3434,1.0798,-6.0183,0.0834,3.4270
1647,-1.1085,-25.9364,1.6209,-5.8965,0.1378,2.7347
1655,-1.4700,-24.9572,2.0686,-5.6405,0.1759,2.1400
1662,-2.0087,-23.5925,2.1596,-5.3269,0.2510,1.6768
1671,-2.5642,-21.3012,2.3008,-4.9805,0.3714,1.4224
1679,-3.0335,-19.4792,2.5259,-4.5725,0.5057,1.3440
1687,-3.2848,-18.0188,2.6743,-4.1067,0.6523,1.3928
1695,-3.4620,-16.9701,2.6073,-3.6572,0.7765,1.5220
1703,-3.5841,-16.2279,2.6504,-3.2290,0.8551,1.7078
1711,-3.5075,-16.4841,2.6288,-2.8144,0.8908,1.8764
1719,-3.3255,-17.4944,3.0191,-2.3595,0.9164,1.9955
1727,-3.0861,-18.9932,3.1699,-1.8626,0.9273,2.0203
1735,-2.7294,-20.5686,3.2298,-1.3611,0.9321,1.9244
1743,-2.3200,-22.1942,3.2992,-0.8468,0.9513,1.6918
1751,-2.0925,-23.5518,3.1388,-0.3275,1.0267,1.3384
1759,-2.0255,-24.6363,2.8563,0.1394,1.1495,0.9222
1767,-2.3104,-25.4121,2.4062,0.5175,1.2966,0.5193
1775,-2.8323,-25.7472,1.8148,0.7794,1.4456,0.1951
1783,-3.4620,-25.5174,1.1085,0.8844,1.5985,-0.0013
1792,-4.0773,-24.6555,0.1245,0.8045,1.7882,-0.0397
1799,-4.5825,-23.4344,-1.0367,0.4876,2.0350,0.0560
1807,-4.7716,-21.8998,-1.9872,-0.0613,2.3158,0.2801
1815,-4.9775,-20.5303,-2.8635,-0.8007,2.6105,0.5745
1823,-5.1188,-19.5415,-3.2370,-1.6771,2.8839,0.9212
1831,-5.1164,-19.1919,-3.1005,-2.5812,3.1331,1.2652
1839,-5.0302,-19.3236,-2.8611,-3.4717,3.3236,1.5652
1847,-4.8961,-20.0443,-2.1955,-4.2719,3.4288,1.7981
1855,-4.7884,-21.2845,-1.5945,-4.9978,3.4451,1.9446
1863,-4.4436,-22.9532,-1.0774,-5.6133,3.4491,1.9939
1871,-4.2425,-24.9380,-0.5004,-6.1060,3.5011,1.9212
1880,-4.0055,-26.9635,0.1508,-6.4665,3.5911,1.7131
1887,-3.9121,-28.8286,0.9720,-6.6818,3.6540,1.4011
1895,-3.8810,-30.1047,1.6855,-6.7362,3.6668,1.0200
1903,-4.0007,-30.3537,2.3152,-6.6565,3.5871,0.6214
1911,-4.1994,-29.4391,2.9281,-6.4465,3.4219,0.2721
1920,-4.2593,-27.7943,3.3615,-6.1172,3.2170,0.0216
1927,-4.3622,-25.5246,3.7781,-5.6772,3.0097,-0.1156
1935,-4.4388,-23.1088,3.8092,-5.1896,2.7845,-0.1330
1943,-4.5346,-20.9948,3.8666,-4.6908,2.4914,-0.0498
1951,-4.4508,-19.1728,3.8451,-4.1941,2.1421,0.1023
1959,-4.2138,-17.7482,3.7230,-3.7001,1.7877,0.2939
1968,-3.9002,-16.7307,3.4884,-3.2402,1.4418,0.4735
1975,-3.4309,-16.0747,2.9497,-2.8421,1.1690,0.6121
1983,-3.0358,-15.8305,2.5929,-2.4978,0.9414,0.6965
1991,-2.7605,-15.8831,2.3727,-2.2007,0.7512,0.7394
1999,-2.5833,-15.9454,2.1308,-1.9396,0.5705,0.7320
2008,-2.4565,-16.2542,1.9154,-1.7107,0.3901,0.6933
2015,-2.3990,-16.5080,1.8603,-1.4989,0.2228,0.6206
2023,-2.3774,-16.8264,1.8196,-1.2985,0.0541,0.5292
2031,-2.4660,-16.9581,1.6592,-1.1250,-0.1143,0.4442
2039,-2.5355,-17.1545,1.4365,-0.9800,-0.2915,0.3675
2048,-2.6025,-17.1257,1.3168,-0.8671,-0.4546,0.3118
2056,-2.7031,-16.9964,1.0534,-0.7885,-0.5891,0.2766
2063,-2.7797,-16.6852,0.6823,-0.7709,-0.7091,0.2683
2071,-2.7916,-16.2135,0.2825,-0.8130,-0.8013,0.2803
2079,-2.8347,-15.4618,-0.1700,-0.9302,-0.8868,0.3232
2087,-2.7797,-14.7004,-0.5507,-1.1223,-0.9382,0.3909
2096,-2.6815,-13.8529,-0.8595,-1.3664,-0.9497,0.4746
2103,-2.5474,-12.9646,-1.0295,-1.6561,-0.9316,0.5705
2111,-2.4205,-12.2655,-1.1085,-1.9633,-0.9065,0.6664
2119,-2.1668,-11.5640,-1.2091,-2.2732,-0.8948,0.7493
2127,-2.0423,-11.0660,-1.1325,-2.5740,-0.8953,0.8156
2136,-1.8818,-10.6614,-1.1013,-2.8581,-0.9041,0.8633
2144,-1.6903,-10.3860,-1.0870,-3.1211,-0.8926,0.8918
2151,-1.4916,-10.1801,-1.0391,-3.3617,-0.8324,0.8942
2159,-1.2785,-10.1227,-1.0151,-3.5823,-0.7325,0.8801
2167,-1.2617,-10.1083,-0.9481,-3.7827,-0.6054,0.8519
2176,-1.2354,-10.1754,-0.9577,-3.9599,-0.4679,0.8116
2184,-1.3551,-10.2951,-0.6776,-4.1131,-0.3392,0.7743
2191,-1.3503,-10.4196,-0.4046,-4.2202,-0.2268,0.7429
2199,-1.4868,-10.5297,-0.2969,-4.2927,-0.1436,0.7088
2207,-1.5203,-10.5010,-0.0168,-4.3284,-0.0911,0.6797
2215,-1.5179,-10.4291,0.0575,-4.3287,-0.0336,0.6587
2224,-1.4724,-10.1706,0.3519,-4.2855,0.0208,0.6281
2232,-1.4533,-9.7731,0.4812,-4.2082,0.0797,0.6107
2239,-1.4269,-9.2392,0.5483,-4.0963,0.1319,0.6006
2247,-1.3168,-8.6191,0.8212,-3.9540,0.1812,0.5966
2255,-1.3455,-7.8937,0.8978,-3.7784,0.2116,0.6035
2264,-1.3001,-7.2616,1.1205,-3.5743,0.2257,0.6254
2272,-1.2163,-6.5984,1.1971,-3.3436,0.2206,0.6544
2279,-1.1803,-5.9304,1.3575,-3.0792,0.2062,0.6912
2287,-0.9888,-5.4157,1.4102,-2.7861,0.1860,0.7189
2295,-0.9194,-4.9177,1.4964,-2.4832,0.1812,0.7429
2304,-0.7853,-4.4604,1.5347,-2.1717,0.1927,0.7530
2312,-0.6105,-4.0725,1.2929,-1.8690,0.2246,0.7514
2319,-0.4764,-3.7924,1.3168,-1.5729,0.2795,0.7357
2327,-0.4908,-3.5458,1.1708,-1.2910,0.3616,0.7226
2335,-0.3424,-3.2872,1.0439,-1.0299,0.4450,0.6952
2343,-0.3089,-3.1436,0.8859,-0.7922,0.5545,0.6632
2352,-0.2921,-3.0143,0.8667,-0.5772,0.6619,0.6315
2360,-0.2227,-2.9616,0.6776,-0.3781,0.7917,0.5963
2367,-0.2897,-2.8802,0.6081,-0.1982,0.9174,0.5593
2375,-0.1963,-2.8323,0.5435,-0.0362,1.0469,0.5180
2383,-0.2610,-2.7821,0.4142,0.1143,1.1935,0.4759
2392,-0.1532,-2.7940,0.2251,0.2563,1.3574,0.4327
2400,-0.1365,-2.7892,0.2155,0.3866,1.5335,0.3808
2407,-0.1030,-2.8180,0.1413,0.5161,1.7155,0.3376
2415,-0.1867,-2.7366,0.2610,0.6305,1.8847,0.2955
2423,-0.2634,-2.7461,0.2466,0.7562,2.0355,0.2601
2432,-0.3352,-2.7821,0.3424,0.8833,2.1549,0.2321
2440,-0.2801,-2.7246,0.3639,1.0112,2.2399,0.2110
2448,-0.4214,-2.8276,0.4166,1.1423,2.3100,0.1937
2455,-0.3711,-2.8970,0.5650,1.2806,2.3497,0.1799
2463,-0.3567,-2.9880,0.6129,1.4373,2.3766,0.1687
2471,-0.3424,-3.0215,0.7901,1.6070,2.3758,0.1561
2480,-0.4860,-3.2441,0.8404,1.7965,2.3449,0.1532
2488,-0.4717,-3.3830,1.0295,2.0073,2.2908,0.1593
2495,-0.5459,-3.5626,1.2067,2.2404,2.2010,0.1740
2503,-0.5962,-3.8499,1.3719,2.5029,2.0693,0.1935
2511,-0.7446,-4.2018,1.4653,2.7765,1.9001,0.2292
2520,-0.8643,-4.6184,1.5850,3.0752,1.7056,0.2739
2528,-0.9385,-5.0853,1.5993,3.3899,1.4807,0.3208
2536,-0.9912,-5.6264,1.7286,3.7198,1.2460,0.3648
2543,-1.1325,-6.2704,1.8196,4.0721,0.9955,0.4106
2551,-1.2474,-7.0868,1.8555,4.4451,0.7344,0.4447
2560,-1.3216,-8.0852,2.0016,4.8454,0.4314,0.4722
2568,-1.4605,-9.2273,2.2075,5.2866,0.1172,0.4919
2576,-1.6951,-10.6446,2.2386,5.7521,-0.2116,0.4876
2583,-1.8914,-12.3301,2.3750,6.2411,-0.5452,0.4748
2591,-2.2314,-14.4011,2.3727,6.7367,-0.9054,0.4287
2599,-2.5450,-16.8241,2.3918,7.2313,-1.2790,0.3685
2608,-3.0095,-19.6875,2.0255,7.6882,-1.6361,0.2883
2616,-3.6129,-22.8527,1.5514,8.0733,-1.9729,0.1956
2624,-4.2042,-25.9699,0.7015,8.2843,-2.2716,0.1042
2631,-4.8052,-28.5365,-0.7039,8.2366,-2.5031,0.0301
2639,-5.2313,-29.8557,-2.2218,7.8598,-2.6212,-0.0019
2648,-5.3510,-29.1111,-3.5769,7.1788,-2.5820,0.0261
2656,-5.0302,-26.1160,-4.4556,6.2981,-2.4078,0.1212
2664,-4.5250,-21.6436,-4.3383,5.3671,-2.2164,0.2766
2671,-3.9313,-17.7578,-3.8475,4.4963,-2.1088,0.4567
2679,-3.3998,-15.2439,-2.9401,3.7915,-2.1051,0.6107
2688,-3.2250,-13.3788,-1.9920,3.2604,-2.2252,0.7498
2696,-2.9616,-11.7364,-1.4676,2.8607,-2.4829,0.8687
2704,-2.5139,-10.6734,-1.1779,2.5522,-2.8261,0.9342
2712,-1.9704,-10.1562,-1.1325,2.3116,-3.1483,0.9100
2719,-1.3695,-10.2615,-1.5467,2.0915,-3.3047,0.7917
2727,-0.9912,-10.9152,-1.9800,1.8367,-3.2562,0.5995
2736,-0.7638,-12.1482,-2.6576,1.4930,-3.0089,0.3592
2744,-0.7949,-13.8457,-3.2441,1.0219,-2.6713,0.0759
2752,-1.4317,-16.5296,-3.2705,0.4594,-2.3635,-0.2217
2759,-2.1835,-20.1424,-3.2801,-0.1719,-2.1130,-0.4922
2767,-3.2705,-24.0186,-3.2058,-0.8745,-1.9540,-0.7133
2776,-4.3407,-27.3897,-2.7533,-1.6419,-1.8967,-0.8308
2784,-5.2337,-28.5149,-1.9441,-2.3188,-1.9513,-0.8098
2792,-5.6527,-26.6163,-0.4477,-2.7518,-2.1056,-0.6297
2800,-5.4061,-23.4512,1.1396,-2.7997,-2.3246,-0.3240
2807,-4.8746,-21.0355,2.8706,-2.4197,-2.4757,0.0144
2816,-4.2784,-19.1440,4.0893,-1.6174,-2.5468,0.3416
2824,-3.4692,-17.0683,3.6440,-0.7877,-2.4941,0.5681
2832,-2.7845,-15.5312,4.2377,0.1977,-2.4824,0.6867
2840,-2.6001,-15.3540,4.7525,1.3555,-2.5807,0.7133
2847,-2.3798,-16.3141,4.8291,2.5580,-2.8104,0.6297
2855,-2.1165,-17.0874,3.9433,3.5522,-3.0840,0.4013
2864,-1.7382,-17.8392,2.7797,4.3343,-3.3508,0.0506
2872,-1.4437,-18.5766,1.8579,4.9261,-3.5194,-0.4415
2880,-1.0247,-20.1113,1.6424,5.4276,-3.6170,-1.0525
2887,-0.8787,-21.7322,1.0463,5.8550,-3.6572,-1.8063
2895,-1.0199,-24.0426,-0.1748,6.0436,-3.6766,-2.7057
2904,-1.0008,-25.3402,-0.4286,5.8345,-3.4749,-3.7417
2912,-2.1093,-27.1000,-0.3448,5.8273,-3.2474,-4.5941
2920,-3.5458,-30.2292,0.3400,5.9051,-3.1171,-5.2637
2928,-5.2840,-31.6681,0.0934,5.9363,-3.0622,-5.6623
2935,-6.9049,-30.7248,-0.5076,5.8337,-3.0755,-5.6954
2944,-7.5465,-27.9284,-1.5036,5.5555,-3.0126,-5.3977
2952,-7.8003,-24.5406,-2.5833,5.1060,-2.7635,-4.8339
2960,-7.5346,-21.2007,-3.0981,4.5602,-2.3633,-4.0910
2968,-7.2616,-18.4617,-2.8683,4.0262,-1.9199,-3.2820
2975,-6.6918,-16.3452,-2.5211,3.5426,-1.5769,-2.4637
2983,-6.0118,-14.9063,-1.9872,3.1237,-1.4107,-1.7507
2992,-5.3175,-13.9534,-1.6999,2.7400,-1.4376,-1.1660
3000,-4.6400,-13.3477,-1.5467,2.3947,-1.5391,-0.7123
3008,-3.8427,-12.8856,-1.5730,2.0784,-1.5958,-0.3864
3016,-3.1556,-12.7922,-1.7166,1.7693,-1.5386,-0.1892
3023,-2.5833,-12.8329,-1.9249,1.4552,-1.3741,-0.0957
3032,-2.1284,-13.0891,-2.0183,1.1237,-1.1282,-0.0906
3040,-1.8699,-13.4530,-2.0662,0.8037,-0.8167,-0.1543
3048,-1.6855,-13.8265,-1.9561,0.5129,-0.4642,-0.2521
3056,-1.9058,-14.3030,-1.6568,0.2491,-0.1186,-0.3483
3063,-2.3750,-15.0021,-1.0558,0.0461,0.1386,-0.4104
3072,-2.8228,-15.6150,-0.5531,-0.1178,0.2665,-0.4205
3080,-3.2848,-16.2375,-0.0072,-0.2180,0.2771,-0.3824
3088,-3.4213,-16.6301,0.3879,-0.2433,0.2265,-0.3102
3096,-3.4955,-16.6397,0.6752,-0.2038,0.1649,-0.2142
3104,-3.4117,-16.3117,0.6752,-0.1079,0.1466,-0.1082
3111,-3.2585,-15.5791,0.7997,0.0221,0.1764,0.0091
3120,-2.8611,-14.5951,0.6201,0.1652,0.2441,0.1188
3128,-2.6073,-13.5703,0.7159,0.3230,0.3637,0.2054
3136,-2.2362,-12.4570,0.6895,0.4906,0.4874,0.2609
3144,-1.9345,-11.4012,0.7614,0.6544,0.5662,0.2875
3151,-1.7478,-10.5728,0.8164,0.8100,0.5622,0.2753
3160,-1.5586,-9.8952,0.9146,0.9707,0.4839,0.2345
3168,-1.1947,-9.4571,1.0415,1.1343,0.3621,0.1511
3176,-0.8930,-9.2320,1.1540,1.3182,0.2451,0.0248
3184,-0.5028,-9.0597,1.0415,1.5186,0.1340,-0.1711
3192,-0.2035,-9.0932,1.1109,1.7107,0.0648,-0.4362
3200,0.2538,-9.2320,1.1253,1.9646,0.0482,-0.7770
3208,0.5028,-9.4715,1.2450,2.2354,0.0778,-1.1858
3216,0.7015,-9.6678,1.2450,2.5378,0.1487,-1.6401
3224,0.5411,-9.7827,1.2019,2.8402,0.2054,-2.0965
3232,0.0862,-9.7612,0.9697,3.1070,0.2308,-2.5005
3239,-0.4070,-9.8282,0.9337,3.3334,0.2097,-2.8160
3248,-0.8284,-9.9335,0.8116,3.5352,0.1495,-3.0625
3256,-1.2785,-10.1442,0.5986,3.6884,0.0317,-3.2423
3264,-1.6089,-10.2065,0.4286,3.7984,-0.1018,-3.3516
3272,-2.0327,-10.3022,0.0670,3.8469,-0.2286,-3.3822
3280,-2.3463,-10.1347,-0.3472,3.8504,-0.3070,-3.3348
3288,-2.6576,-9.7851,-0.7997,3.7590,-0.3171,-3.1986
3296,-2.9377,-9.0525,-1.3216,3.5733,-0.2686,-2.9764
3304,-3.0502,-8.1618,-1.8747,3.2897,-0.1743,-2.6689
3312,-3.1484,-7.0868,-2.2625,2.9012,-0.0746,-2.3033
3320,-3.1795,-6.1196,-2.4612,2.4512,0.0160,-1.9015
3328,-3.0406,-5.3606,-2.6025,1.9524,0.0805,-1.4810
3336,-2.9904,-4.7525,-2.4086,1.4682,0.0983,-1.0643
3344,-2.8132,-4.2952,-1.9872,1.0147,0.0743,-0.6749
3352,-2.5187,-3.9648,-1.6831,0.6206,-0.0053,-0.3235
3360,-2.2458,-3.9121,-1.3623,0.2758,-0.0882,-0.0208
3368,-1.9321,-3.8571,-1.1827,-0.0109,-0.1306,0.2409
3376,-1.6137,-3.8786,-1.0942,-0.2475,-0.0973,0.4522
3384,-1.3024,-3.8211,-0.9529,-0.4389,-0.0064,0.6193
3392,-1.1061,-3.7996,-0.8835,-0.6110,0.1015,0.7493
3400,-0.9888,-3.7350,-0.6512,-0.7512,0.1831,0.8436
3408,-0.8763,-3.6033,-0.5387,-0.8721,0.2372,0.9089
3416,-0.7614,-3.5889,-0.3783,-0.9739,0.2577,0.9531
3424,-0.6823,-3.4716,-0.2777,-1.0608,0.2451,0.9758
3432,-0.6201,-3.3830,-0.1532,-1.1471,0.2001,0.9795
3440,-0.5650,-3.2537,-0.0982,-1.2236,0.1308,0.9742
3448,-0.4142,-3.3232,0.0599,-1.2734,0.0901,0.9470
3457,-0.3663,-3.3088,0.0311,-1.3027,0.0823,0.9180
3464,-0.3567,-3.3734,0.1125,-1.3075,0.0946,0.8857
3472,-0.3543,-3.3447,0.0766,-1.3006,0.1220,0.8559
3480,-0.3950,-3.4381,0.1149,-1.2764,0.1418,0.8343
3488,-0.4645,-3.6176,0.2969,-1.2391,0.1604,0.8231
3496,-0.6728,-3.7326,0.3831,-1.2004,0.1490,0.8202
3504,-0.8499,-3.9983,0.3256,-1.1738,0.0909,0.8394
3512,-0.9385,-4.3383,0.2203,-1.1746,0.0296,0.8705
3520,-1.0606,-4.7453,0.1341,-1.1866,-0.0274,0.9038
3528,-1.2043,-5.3750,0.1197,-1.2100,-0.0608,0.9531
3536,-1.3599,-5.9376,-0.0814,-1.2508,-0.0594,1.0043
3544,-1.4868,-6.6583,-0.3089,-1.3062,-0.0357,1.0613
3552,-1.7478,-7.4268,-0.3328,-1.3813,0.0197,1.1349
3560,-1.9656,-8.3653,-0.3903,-1.4917,0.1018,1.2223
3568,-2.3391,-9.3565,-0.7614,-1.6518,0.1887,1.3443
3576,-2.6624,-10.5848,-0.9385,-1.8695,0.2862,1.4943
3585,-3.0023,-11.8058,-1.1636,-2.1493,0.3952,1.6784
3592,-3.3878,-13.2519,-1.5706,-2.5111,0.5257,1.8932
3600,-3.7397,-14.5663,-1.7717,-2.9463,0.6710,2.1333
3608,-3.9241,-15.7084,-1.9130,-3.4350,0.8455,2.3840
3616,-3.8882,-16.8097,-1.8938,-3.9362,1.0429,2.6079
3624,-3.5674,-17.4609,-1.1827,-4.3500,1.2340,2.7614
3632,-3.3136,-17.4465,-0.5148,-4.6532,1.3915,2.8490
3640,-3.0239,-16.9893,0.0670,-4.8272,1.5172,2.8711
3648,-2.6815,-16.2183,0.5938,-4.8584,1.6190,2.8410
3656,-2.3583,-15.3229,1.2234,-4.7697,1.6638,2.7629
3664,-2.0542,-14.5807,1.8962,-4.5661,1.6446,2.6404
3673,-1.7933,-13.9175,2.3774,-4.2423,1.5764,2.4872
3680,-1.5251,-13.2447,2.7509,-3.8376,1.4610,2.3004
3688,-1.2043,-12.5959,3.0622,-3.3822,1.3222,2.0832
3696,-0.8260,-12.3445,3.0885,-2.8869,1.1695,1.8194
3704,-0.5674,-12.2248,3.2178,-2.3662,1.0349,1.5005
3713,-0.2969,-12.3948,3.3950,-1.8026,0.9116,1.1215
3720,-0.2634,-12.8449,3.6129,-1.1900,0.7810,0.6987
3728,-0.5531,-13.3764,3.3782,-0.5857,0.6702,0.2827
3736,-0.8835,-14.2024,3.1627,-0.0040,0.5692,-0.0978
3744,-1.3671,-15.2846,2.9592,0.5215,0.4783,-0.4269
3752,-1.8699,-16.6349,2.6432,0.9878,0.3978,-0.6957
3761,-2.5019,-17.9661,2.0590,1.3563,0.3405,-0.8857
3768,-3.2801,-19.1297,1.3479,1.5671,0.3262,-0.9619
3776,-4.0199,-19.6181,0.0359,1.5572,0.3773,-0.9060
3784,-4.5250,-19.3116,-1.3575,1.2790,0.5305,-0.7024
3792,-4.7908,-18.4521,-2.4157,0.7642,0.8164,-0.3738
3801,-4.8937,-17.3628,-3.0646,0.0674,1.1756,0.0306
3808,-4.9919,-16.6277,-3.1843,-0.7269,1.5282,0.4852
3816,-4.9895,-16.2662,-2.7198,-1.5026,1.7656,0.9316
3824,-4.8459,-16.1992,-1.8531,-2.1464,1.8508,1.3475
3832,-4.6184,-16.2183,-1.1109,-2.6630,1.8354,1.6689
3841,-4.1013,-16.3117,-0.5866,-3.0755,1.7904,1.9505
3849,-3.5578,-16.5224,-0.2346,-3.3886,1.7840,2.1037
3856,-3.0071,-16.9869,-0.1149,-3.6228,1.8365,2.1437
3864,-2.6719,-17.7291,0.0814,-3.7979,1.9364,2.0795
3872,-2.5163,-18.3899,0.3759,-3.9365,2.0504,1.9377
3880,-2.5139,-19.2518,0.5890,-4.0412,2.1413,1.7408
3889,-2.7366,-20.1951,0.6847,-4.1190,2.1674,1.5250
3896,-3.2082,-21.1312,0.8332,-4.1928,2.1418,1.3419
3904,-3.6512,-21.9333,0.8332,-4.2863,2.0520,1.2140
3912,-3.9768,-22.5630,0.7374,-4.4081,1.9596,1.1383
3920,-4.1515,-22.9077,0.6800,-4.5387,1.8650,1.1021
3929,-4.2641,-22.7401,0.6273,-4.6708,1.7989,1.1026
3937,-4.1970,-22.0554,0.7661,-4.7865,1.7722,1.1234
3944,-4.0414,-21.1264,0.7973,-4.8616,1.7909,1.1655
3952,-3.7709,-19.9581,0.9002,-4.8960,1.8159,1.2039
3960,-3.6129,-18.8903,1.2809,-4.8688,1.8109,1.2406
3969,-3.5147,-17.8943,1.8579,-4.7457,1.7320,1.2737
3977,-3.2537,-17.0611,2.4565,-4.5139,1.5764,1.2971
3984,-3.0502,-16.3093,2.9329,-4.1629,1.3507,1.2993
3992,-2.8156,-15.7898,3.3184,-3.7180,1.0704,1.2729
4000,-2.3918,-15.4282,3.5889,-3.2007,0.7855,1.1911
4008,-1.9321,-15.2894,3.6823,-2.6580,0.5356,1.0440
4017,-1.5658,-15.2415,3.4548,-2.0925,0.3371,0.8378
4025,-1.4341,-15.4019,3.1053,-1.5660,0.1865,0.5886
4032,-1.4772,-15.5791,2.8228,-1.0901,0.0536,0.3317
4040,-1.7789,-15.8089,2.4900,-0.6773,-0.0703,0.1079
4048,-2.1668,-16.0292,2.1811,-0.3355,-0.2012,-0.0632
4057,-2.5019,-16.2662,1.7047,-0.0762,-0.3453,-0.1815
4065,-2.7797,-16.3428,1.2641,0.0778,-0.4751,-0.2393
4072,-3.1125,-16.3021,0.6584,0.1247,-0.5692,-0.2374
4080,-3.3327,-16.1609,-0.0527,0.0600,-0.6041,-0.1647
4088,-3.4022,-15.7443,-0.5986,-0.1250,-0.5750,-0.0432
4097,-3.4261,-15.1433,-1.1013,-0.4101,-0.4930,0.1162
4105,-3.4357,-14.4825,-1.4653,-0.7735,-0.3848,0.3062
4112,-3.4093,-13.8696,-1.6257,-1.1754,-0.2774,0.5116
4120,-3.2274,-13.2567,-1.6017,-1.5828,-0.1788,0.7080
4128,-2.9880,-12.6797,-1.2474,-1.9452,-0.1085,0.8812
4136,-2.7222,-12.2009,-0.9984,-2.2362,-0.0874,1.0283
4145,-2.6312,-11.7507,-0.7350,-2.4786,-0.1103,1.1442
4153,-2.3056,-11.3988,-0.5435,-2.6724,-0.1314,1.2255
4160,-1.9656,-11.1474,-0.4238,-2.8152,-0.1143,1.2617
4168,-1.7454,-10.9607,-0.3472,-2.9255,-0.0544,1.2657
4176,-1.5850,-11.0205,-0.1987,-3.0134,0.0226,1.2327
4185,-1.5538,-11.1618,-0.1580,-3.0830,0.0938,1.1818
4193,-1.5874,-11.3150,-0.1006,-3.1336,0.1556,1.1215
4200,-1.7047,-11.4898,-0.0359,-3.1872,0.2057,1.0608
4208,-1.7645,-11.5257,-0.1030,-3.2375,0.2427,1.0150
4216,-1.8316,-11.6262,0.0239,-3.2852,0.2555,0.9782
4225,-1.8986,-11.6262,0.0575,-3.3318,0.2595,0.9526
4233,-1.9297,-11.4347,0.1389,-3.3625,0.2769,0.9409
4241,-1.8962,-11.2504,0.1939,-3.3713,0.3126,0.9281
4248,-1.8028,-10.8314,0.2945,-3.3566,0.3579,0.9284
4256,-1.7909,-10.2975,0.3591,-3.3092,0.3917,0.9316
4264,-1.7310,-9.8354,0.6776,-3.2359,0.4130,0.9403
4273,-1.6137,-9.1722,0.7230,-3.1216,0.4242,0.9555
4281,-1.5897,-8.5305,0.9577,-2.9769,0.4138,0.9737
4288,-1.4533,-8.0014,1.0798,-2.7976,0.3824,0.9886
4296,-1.2929,-7.3765,1.2522,-2.5852,0.3437,0.9899
4304,-1.0870,-6.9791,1.3096,-2.3465,0.3112,0.9779
4313,-0.8882,-6.5314,1.4126,-2.0917,0.2915,0.9430
4321,-0.8068,-6.2776,1.2881,-1.8261,0.2814,0.8911
4329,-0.6464,-5.8490,1.3503,-1.5484,0.2928,0.8247
4336,-0.5363,-5.6120,1.3264,-1.2740,0.3232,0.7416
4344,-0.3950,-5.3726,1.2258,-1.0115,0.3565,0.6459
4353,-0.4453,-5.2529,1.0654,-0.7650,0.3901,0.5436
4361,-0.3328,-5.1164,0.9768,-0.5340,0.4314,0.4341
4369,-0.3591,-5.0470,0.9385,-0.3208,0.4743,0.3320
4376,-0.2849,-4.9440,0.7087,-0.1292,0.5271,0.2214
4384,-0.3280,-4.8459,0.6943,0.0453,0.5745,0.1156
4392,-0.3591,-4.8578,0.7111,0.2049,0.6305,0.0242
4401,-0.4022,-4.7716,0.5938,0.3611,0.6941,-0.0669
4409,-0.4645,-4.8052,0.5148,0.5135,0.7482,-0.1484
4417,-0.4477,-4.8076,0.5291,0.6563,0.8074,-0.2182
4424,-0.5794,-4.8866,0.4621,0.7970,0.8487,-0.2742
4432,-0.5986,-4.8698,0.5315,0.9417,0.8903,-0.3211
4441,-0.6656,-4.8961,0.4645,1.0773,0.9073,-0.3531
4449,-0.7901,-5.1212,0.4741,1.2071,0.9102,-0.3789
4457,-0.8308,-5.2529,0.5363,1.3392,0.8929,-0.4013
4464,-0.9625,-5.3965,0.5602,1.4799,0.8535,-0.4088
4472,-0.9242,-5.6551,0.5578,1.6361,0.8068,-0.4194
4481,-1.0319,-5.8730,0.6488,1.7808,0.7501,-0.4250
4489,-1.0989,-6.1914,0.7350,1.9382,0.6875,-0.4349
4497,-1.0942,-6.5745,0.6967,2.1003,0.6203,-0.4445
4505,-1.1253,-6.9456,0.7159,2.2633,0.5444,-0.4543
4512,-1.1971,-7.3334,0.6823,2.4272,0.4746,-0.4716
4520,-1.2737,-7.7764,0.6177,2.5834,0.3936,-0.4871
4529,-1.2881,-8.2983,0.5578,2.7350,0.3032,-0.5140
4537,-1.4653,-8.7987,0.4501,2.8743,0.2092,-0.5465
4545,-1.4868,-9.3254,0.4190,2.9945,0.1087,-0.5852
4552,-1.5251,-9.8258,0.3567,3.0990,0.0072,-0.6246
4560,-1.6161,-10.3094,0.2825,3.1770,-0.0922,-0.6646
4569,-1.7262,-10.7308,0.1437,3.2277,-0.1945,-0.7035
4577,-1.8459,-11.1809,-0.0503,3.2532,-0.2987,-0.7400
4585,-1.9537,-11.5903,-0.2203,3.2474,-0.3842,-0.7701
4593,-2.1045,-11.8681,-0.3041,3.2199,-0.4604,-0.7834
4600,-2.1380,-12.0548,-0.4046,3.1640,-0.5273,-0.7911
4609,-2.3200,-12.1889,-0.5986,3.0790,-0.5910,-0.7794
4617,-2.4660,-12.1194,-0.7542,2.9641,-0.6683,-0.7477
4625,-2.5379,-12.0500,-0.7877,2.8264,-0.7400,-0.6971
4633,-2.5953,-11.8681,-0.8499,2.6809,-0.8132,-0.6342
4640,-2.5450,-11.8513,-0.8787,2.5199,-0.8868,-0.5644
4648,-2.5379,-11.7914,-0.8140,2.3561,-0.9603,-0.4940
4657,-2.5187,-11.8106,-0.7374,2.1996,-1.0221,-0.4314
4665,-2.4253,-11.9040,-0.7518,2.0624,-1.0842,-0.3818
4673,-2.3415,-12.1578,-0.7781,1.9380,-1.1357,-0.3523
4681,-2.2960,-12.4187,-0.7709,1.8135,-1.1706,-0.3387
4688,-2.2841,-12.7515,-0.8164,1.6603,-1.1993,-0.3475
4697,-2.2793,-13.1466,-0.7374,1.5436,-1.2159,-0.3664
4705,-2.3487,-13.6757,-0.5890,1.4232,-1.2489,-0.3981
4713,-2.4612,-14.0803,-0.3639,1.3302,-1.2977,-0.4341
4721,-2.4900,-14.4849,-0.1796,1.2716,-1.3619,-0.4666
4728,-2.6169,-14.8800,-0.0814,1.2425,-1.4240,-0.4956
4737,-2.6121,-15.1290,0.1245,1.2428,-1.4879,-0.5273
4745,-2.7078,-15.3684,0.3065,1.2697,-1.5524,-0.5609
4753,-2.7438,-15.6126,0.5507,1.3398,-1.6062,-0.5907
4761,-2.7414,-15.7179,0.6225,1.4429,-1.6571,-0.6230
4768,-2.8156,-15.8879,0.7757,1.5753,-1.7062,-0.6504
4776,-2.9113,-15.9238,0.8715,1.7048,-1.7896,-0.6744
4785,-2.9233,-16.1010,0.9098,1.9055,-1.8607,-0.6971
4793,-2.9257,-16.1704,0.9577,2.0755,-1.9265,-0.7261
4801,-2.8395,-16.3404,0.8092,2.2497,-1.9889,-0.7698
4809,-2.7845,-16.6134,0.6488,2.4030,-2.0283,-0.8388
4816,-2.7940,-16.9055,0.6105,2.5378,-2.0555,-0.9313
4825,-2.7294,-17.1568,0.4956,2.6574,-2.0624,-1.0384
4833,-2.6839,-17.4274,0.2825,2.7622,-2.0480,-1.1615
4841,-2.7054,-17.6094,0.3017,2.8533,-2.0288,-1.2974
4849,-2.7845,-17.8033,0.2346,2.9308,-1.9963,-1.4432
4856,-2.8802,-17.9086,0.1245,3.0006,-1.9596,-1.5687
4865,-2.9999,-18.1169,0.0455,3.0574,-1.9228,-1.6776
4873,-3.1484,-18.1744,0.0072,3.1014,-1.8882,-1.7656
4881,-3.2848,-18.2007,-0.1700,3.1219,-1.8466,-1.8290
4889,-3.3351,-18.1816,-0.2514,3.1240,-1.7930,-1.8682
4897,-3.4740,-18.1073,-0.3448,3.0971,-1.7395,-1.8788
4904,-3.5434,-17.9517,-0.5291,3.0441,-1.6862,-1.8682
4913,-3.6081,-17.6644,-0.6009,2.9655,-1.5924,-1.8311
4921,-3.6081,-17.4250,-0.7853,2.8618,-1.5103,-1.7648
4929,-3.7517,-17.1281,-0.7087,2.7416,-1.4226,-1.6830
4937,-3.7373,-16.9725,-0.9002,2.6041,-1.3315,-1.5865
4944,-3.6272,-16.7307,-0.9673,2.4642,-1.2454,-1.4866
4953,-3.5458,-16.5200,-0.8811,2.3148,-1.1501,-1.3877
4961,-3.3926,-16.4003,-1.0008,2.1615,-1.0475,-1.3017
4969,-3.2896,-16.3021,-0.9888,2.0158,-0.9313,-1.2321
4977,-3.1915,-16.2590,-0.9122,1.8676,-0.8231,-1.1788
4985,-3.1125,-16.1776,-0.7925,1.7461,-0.7123,-1.1405
4993,-3.0406,-16.0579,-0.6752,1.6478,-0.6099,-1.1048
5001,-2.9592,-15.9526,-0.4836,1.5316,-0.5279,-1.0722
5009,-2.9832,-15.9119,-0.3639,1.4599,-0.4498,-1.0469
5017,-2.9090,-15.7993,-0.1413,1.4181,-0.3904,-1.0224
5025,-2.9353,-15.7155,-0.0622,1.4061,-0.3320,-0.9992
5032,-2.8156,-15.4953,0.0862,1.4197,-0.2827,-0.9862
5041,-2.7342,-15.3229,0.2466,1.4554,-0.2358,-0.9800
5049,-2.6959,-15.0643,0.2705,1.5034,-0.1961,-0.9753
5057,-2.6695,-14.8153,0.3136,1.5631,-0.1700,-0.9806
5065,-2.5115,-14.5879,0.2538,1.6417,-0.1529,-0.9758
5073,-2.5019,-14.2168,0.3687,1.6848,-0.1410,-0.9859
5081,-2.4134,-13.9295,0.3591,1.7395,-0.1303,-0.9974
5089,-2.2865,-13.6733,0.3639,1.8138,-0.1247,-1.0107
5097,-2.2458,-13.4410,0.3903,1.8820,-0.1138,-1.0344
5105,-2.2051,-13.1801,0.3496,1.9489,-0.1116,-1.0720
5113,-2.0399,-13.0125,0.3591,2.0185,-0.1042,-1.1175
5121,-1.9704,-12.8640,0.4190,2.0859,-0.0954,-1.1714
5129,-1.9656,-12.6174,0.2753,2.1514,-0.0927,-1.2321
5137,-2.0039,-12.4139,0.2274,2.1959,-0.0927,-1.2875
5145,-2.0087,-12.1793,0.1053,2.2279,-0.0933,-1.3257
5153,-2.0949,-12.0189,0.0670,2.2324,-0.0975,-1.3451
5161,-2.1596,-11.6933,0.0311,2.2290,-0.1045,-1.3443
5169,-2.1811,-11.4610,-0.0886,2.2156,-0.1178,-1.3307
5177,-2.1500,-11.1713,-0.1365,2.1845,-0.1220,-1.3011
5185,-2.2003,-10.9391,-0.1820,2.1458,-0.1311,-1.2590
5193,-2.2386,-10.6135,-0.1867,2.0835,-0.1354,-1.2057
5201,-2.1739,-10.3597,-0.3400,2.0201,-0.1396,-1.1487
5209,-2.1189,-10.0652,-0.3950,1.9428,-0.1378,-1.0845
5217,-2.1524,-9.8186,-0.4238,1.8487,-0.1402,-1.0155
5225,-2.0470,-9.5337,-0.5076,1.7491,-0.1415,-0.9459
5233,-2.0207,-9.2273,-0.5626,1.6505,-0.1442,-0.8761
5241,-1.9201,-8.8705,-0.6009,1.5071,-0.1412,-0.8052
5250,-1.8627,-8.5688,-0.5339,1.3827,-0.1535,-0.7370
5257,-1.8244,-8.3055,-0.4932,1.2625,-0.1487,-0.6739
5265,-1.7645,-8.0134,-0.3831,1.1506,-0.1532,-0.6150
5273,-1.6951,-7.7692,-0.4453,1.0336,-0.1671,-0.5529
5281,-1.6496,-7.4867,-0.4166,0.9158,-0.1892,-0.4940
5289,-1.5754,-7.2161,-0.3591,0.8186,-0.2065,-0.4431
5297,-1.5299,-7.0749,-0.4046,0.7202,-0.2148,-0.3869
5305,-1.4820,-6.9168,-0.4022,0.6214,-0.2260,-0.3437
5313,-1.4054,-6.7062,-0.4429,0.5263,-0.2364,-0.2974
5321,-1.3431,-6.6559,-0.3639,0.4373,-0.2465,-0.2523
5329,-1.3288,-6.4524,-0.2945,0.3512,-0.2539,-0.2092
5338,-1.3240,-6.3111,-0.2825,0.2697,-0.2731,-0.1721
5345,-1.2929,-6.2106,-0.2514,0.1889,-0.2910,-0.1306
5353,-1.3503,-6.1052,-0.1939,0.1170,-0.3163,-0.0853
5361,-1.2977,-6.0980,-0.1987,0.0493,-0.3384,-0.0434
5369,-1.2833,-6.0597,-0.2274,-0.0139,-0.3536,0.0021
5378,-1.3024,-5.9759,-0.2227,-0.0674,-0.3645,0.0416
5385,-1.2522,-6.0765,-0.1580,-0.1247,-0.3709,0.0855
5393,-1.2043,-6.0094,-0.1508,-0.1639,-0.3714,0.1258
5401,-1.2091,-6.1004,-0.0407,-0.2110,-0.3683,0.1631
5409,-1.2713,-6.1220,-0.1030,-0.2582,-0.3656,0.2057
5417,-1.2546,-6.1866,-0.0958,-0.3048,-0.3584,0.2443
5425,-1.2977,-6.2177,-0.0886,-0.3499,-0.3507,0.2870
5433,-1.3096,-6.3255,-0.0670,-0.3938,-0.3480,0.3238
5441,-1.3144,-6.4572,-0.0120,-0.4445,-0.3344,0.3656
5449,-1.3001,-6.5697,-0.0455,-0.4852,-0.3126,0.4037
5457,-1.3264,-6.7181,-0.1101,-0.5287,-0.2830,0.4437
5466,-1.4126,-6.8187,-0.1556,-0.5750,-0.2451,0.4852
5473,-1.3719,-6.9288,-0.1101,-0.6254,-0.2025,0.5196
5481,-1.3791,-7.1204,-0.2083,-0.6787,-0.1588,0.5620
5489,-1.5131,-7.2161,-0.2251,-0.7346,-0.1106,0.6025
5497,-1.5107,-7.3239,-0.2370,-0.7879,-0.0581,0.6464
5506,-1.4676,-7.4843,-0.1460,-0.8396,-0.0013,0.6848
5513,-1.5658,-7.7524,-0.1269,-0.8942,0.0581,0.7266
5521,-1.5802,-7.8314,-0.0814,-0.9379,0.1127,0.7631
5529,-1.5610,-8.0325,-0.0886,-0.9923,0.1836,0.8076
5537,-1.5730,-8.1810,-0.0982,-1.0339,0.2462,0.8431
5545,-1.5538,-8.4180,-0.0407,-1.0770,0.3110,0.8793
5554,-1.6281,-8.6383,-0.1293,-1.1266,0.3858,0.9110
5561,-1.6448,-8.7939,-0.1580,-1.1738,0.4586,0.9425
5569,-1.6951,-8.9471,-0.0790,-1.2244,0.5316,0.9731
5577,-1.6903,-9.2033,-0.0742,-1.2697,0.5969,1.0032
5585,-1.7837,-9.4355,-0.0335,-1.3134,0.6715,1.0328
5594,-1.7645,-9.6319,-0.1006,-1.3544,0.7426,1.0613
5601,-1.8316,-9.8258,-0.1053,-1.3941,0.8018,1.0834
5609,-1.8555,-10.1586,0.0311,-1.4306,0.8628,1.1101
5617,-1.9321,-10.4435,0.0742,-1.4682,0.9316,1.1277
5625,-2.0183,-10.6997,0.0790,-1.4975,0.9960,1.1413
5634,-2.0135,-10.9750,0.1915,-1.5258,1.0581,1.1527
5642,-2.0494,-11.2815,0.1460,-1.5551,1.1157,1.1580
5649,-2.0973,-11.5353,0.2203,-1.5815,1.1682,1.1615
5657,-2.1237,-11.8274,0.2753,-1.6145,1.2188,1.1594
5665,-2.1620,-12.0859,0.2634,-1.6505,1.2758,1.1556
5673,-2.1739,-12.3325,0.2394,-1.6808,1.3238,1.1463
5682,-2.2386,-12.6222,0.2873,-1.7126,1.3638,1.1386
5689,-2.3511,-12.9574,0.3448,-1.7296,1.4013,1.1301
5697,-2.3415,-13.1777,0.3448,-1.7507,1.4320,1.1250
5705,-2.4157,-13.4363,0.4573,-1.7624,1.4581,1.1167
5713,-2.5235,-13.5919,0.4884,-1.7826,1.4655,1.1061
5722,-2.5642,-13.8361,0.4429,-1.7962,1.4695,1.0944
5730,-2.4995,-14.0923,0.5555,-1.8029,1.4717,1.0824
5737,-2.5307,-14.2383,0.5507,-1.8159,1.4807,1.0664
5745,-2.6264,-14.4083,0.4429,-1.8322,1.4765,1.0488
5753,-2.5714,-14.6334,0.5291,-1.8477,1.4749,1.0365
5762,-2.5762,-14.7722,0.5770,-1.8634,1.4602,1.0171
5770,-2.6169,-14.7890,0.5459,-1.8722,1.4520,1.0059
5777,-2.7342,-15.0284,0.6249,-1.8914,1.4394,0.9912
5785,-2.7438,-15.1529,0.5770,-1.9071,1.4192,0.9888
5793,-2.7366,-15.1984,0.6225,-1.9305,1.3989,0.9766
5801,-2.8204,-15.3947,0.5267,-1.9622,1.3715,0.9718
5810,-2.8276,-15.4857,0.5794,-1.9947,1.3470,0.9654
5818,-2.8443,-15.6150,0.5602,-2.0368,1.3230,0.9601
5825,-2.8467,-15.7491,0.5100,-2.0693,1.2985,0.9577
5833,-2.8970,-15.8305,0.5794,-2.1165,1.2729,0.9553
5841,-2.9880,-15.8544,0.5124,-2.1706,1.2401,0.9563
5850,-2.9066,-15.9837,0.4788,-2.2204,1.2081,0.9585
5858,-2.9880,-16.0819,0.5243,-2.2697,1.1714,0.9617
5865,-2.9928,-16.2183,0.5986,-2.3196,1.1399,0.9641
5873,-3.0143,-16.2638,0.4525,-2.3694,1.0965,0.9657
5881,-3.0742,-16.3787,0.4980,-2.4221,1.0421,0.9657
5890,-2.9497,-16.4601,0.5483,-2.4610,1.0043,0.9606
5898,-2.9712,-16.5655,0.5267,-2.5002,0.9550,0.9553
5906,-2.9090,-16.5703,0.6608,-2.5354,0.9057,0.9462
5913,-2.9664,-16.5990,0.6105,-2.5623,0.8524,0.9281
5921,-3.0071,-16.6038,0.6584,-2.5860,0.7967,0.9201
5929,-2.9113,-16.5966,0.6704,-2.6017,0.7448,0.9078
5938,-2.9066,-16.5320,0.6057,-2.6137,0.6947,0.8942
5946,-2.9425,-16.5870,0.7398,-2.6169,0.6398,0.8836
5953,-2.8252,-16.4075,0.8188,-2.6124,0.5923,0.8737
5961,-2.8874,-16.2925,0.7805,-2.6031,0.5356,0.8641
5969,-2.8180,-16.2040,0.7494,-2.5905,0.4884,0.8524
5978,-2.7940,-16.0292,0.7973,-2.5722,0.4338,0.8447
5986,-2.8180,-15.9047,0.8188,-2.5490,0.3738,0.8383
5994,-2.7725,-15.6150,0.8021,-2.5191,0.3269,0.8306
6001,-2.7485,-15.4091,0.8739,-2.4877,0.2769,0.8319
6009,-2.6264,-15.1888,0.8188,-2.4544,0.2358,0.8263
6018,-2.6432,-14.9805,0.8068,-2.4104,0.1884,0.8239
6026,-2.6240,-14.8105,0.7350,-2.3750,0.1460,0.8218
6034,-2.5043,-14.6262,0.7254,-2.3294,0.1122,0.8175
6041,-2.4828,-14.4466,0.7374,-2.2870,0.0839,0.8138
6049,-2.4157,-14.1258,0.7135,-2.2455,0.0522,0.8095
6057,-2.3990,-13.9390,0.6057,-2.2100,0.0258,0.8039
6066,-2.3487,-13.7260,0.6249,-2.1711,0.0067,0.8018
6074,-2.2865,-13.5225,0.6536,-2.1322,-0.0133,0.7986
6082,-2.3272,-13.2830,0.5531,-2.0928,-0.0250,0.7970
6089,-2.3104,-13.1394,0.6369,-2.0611,-0.0405,0.7925
6097,-2.2769,-12.9957,0.5363,-2.0283,-0.0386,0.7946
6106,-2.2386,-12.7491,0.5219,-2.0019,-0.0389,0.7893
6114,-2.2218,-12.5456,0.4645,-1.9697,-0.0418,0.7919
6122,-2.1189,-12.3637,0.4597,-1.9454,-0.0373,0.7887
6129,-2.0830,-12.1865,0.3424,-1.9212,-0.0333,0.7818
6137,-2.0470,-12.0548,0.3711,-1.8943,-0.0173,0.7799
6146,-1.9872,-11.8681,0.3687,-1.8722,0.0059,0.7717
6154,-2.0327,-11.5975,0.3160,-1.8495,0.0341,0.7631
6162,-1.9201,-11.4299,0.2227,-1.8194,0.0642,0.7536
6170,-1.8603,-11.2599,0.2849,-1.7954,0.0938,0.7408
6177,-1.8316,-11.0732,0.3567,-1.7693,0.1255,0.7290
6185,-1.8292,-10.7835,0.2634,-1.7419,0.1577,0.7152
6194,-1.7549,-10.6398,0.2801,-1.7067,0.1871,0.7000
6202,-1.7334,-10.3741,0.2921,-1.6651,0.2198,0.6829
6210,-1.6376,-10.1586,0.3232,-1.6281,0.2526,0.6627
6217,-1.6568,-9.8713,0.4190,-1.5892,0.2886,0.6467
6225,-1.5874,-9.6079,0.3496,-1.5436,0.3155,0.6275
6234,-1.5490,-9.4954,0.3783,-1.5007,0.3469,0.6041
6242,-1.5778,-9.2033,0.3160,-1.4512,0.3786,0.5830
6250,-1.4557,-9.0261,0.4022,-1.3976,0.4133,0.5580
6257,-1.4557,-8.7652,0.4022,-1.3411,0.4415,0.5393
6265,-1.3695,-8.5305,0.3519,-1.2894,0.4767,0.5127
6274,-1.3575,-8.3869,0.4334,-1.2260,0.5057,0.4887
6282,-1.3072,-8.1331,0.3591,-1.1647,0.5369,0.4647
6290,-1.3120,-7.9703,0.3759,-1.1021,0.5729,0.4399
6298,-1.2905,-7.8171,0.3328,-1.0339,0.5979,0.4141
6305,-1.2689,-7.5968,0.3184,-0.9734,0.6134,0.3938
6313,-1.2833,-7.5010,0.3807,-0.9060,0.6323,0.3683
6322,-1.1612,-7.3670,0.4621,-0.8402,0.6544,0.3461
6330,-1.1732,-7.2592,0.4262,-0.7642,0.6781,0.3134
6338,-1.1588,-7.1635,0.2969,-0.6885,0.6976,0.2875
6345,-1.0846,-7.0318,0.4453,-0.6142,0.7080,0.2555
6353,-1.0678,-6.9384,0.4094,-0.5295,0.7280,0.2265
6362,-1.0989,-6.9480,0.3496,-0.4519,0.7346,0.1961
6370,-1.0726,-6.8905,0.5243,-0.3672,0.7386,0.1641
6378,-1.0534,-6.8714,0.5052,-0.2777,0.7373,0.1343
6386,-1.0439,-6.8067,0.5124,-0.1916,0.7328,0.0999
6393,-1.0343,-6.7397,0.4238,-0.0989,0.7258,0.0674
6402,-1.0511,-6.8354,0.4836,-0.0112,0.7155,0.0317
6410,-1.0487,-6.8091,0.4238,0.0847,0.6949,-0.0059
6418,-1.0582,-6.8474,0.5674,0.1804,0.6691,-0.0418
6426,-1.0702,-6.8714,0.5052,0.2803,0.6374,-0.0770
6433,-1.0870,-6.9743,0.5674,0.3848,0.5979,-0.1119
6441,-1.0271,-6.9168,0.6225,0.4919,0.5505,-0.1487
6450,-1.0989,-7.0366,0.6656,0.5998,0.5076,-0.1823
6458,-1.1995,-7.0246,0.6416,0.7171,0.4447,-0.2190
6466,-1.0558,-7.2233,0.5243,0.8380,0.3826,-0.2510
6474,-1.1349,-7.3167,0.6728,0.9622,0.3123,-0.2875
6481,-1.1732,-7.3622,0.5315,1.0818,0.2388,-0.3155
6490,-1.1923,-7.5274,0.6225,1.1996,0.1655,-0.3445
6498,-1.1660,-7.6710,0.4501,1.3099,0.0962,-0.3749
6506,-1.2354,-7.9080,0.5219,1.4077,0.0237,-0.4040
6514,-1.2929,-8.0493,0.4190,1.5018,-0.0456,-0.4341
6521,-1.3767,-8.2887,0.3759,1.5998,-0.1199,-0.4644
6530,-1.4413,-8.5401,0.4381,1.6952,-0.1969,-0.4948
6538,-1.4605,-8.7269,0.3879,1.7493,-0.2734,-0.5220
6546,-1.4940,-8.9735,0.3232,1.8349,-0.3531,-0.5505
6554,-1.5921,-9.2919,0.3041,1.9052,-0.4242,-0.5793
6562,-1.6161,-9.6103,0.2370,1.9633,-0.4996,-0.6075
6569,-1.7166,-9.8689,0.2035,2.0240,-0.5726,-0.6342
6578,-1.7549,-10.1538,0.1915,2.0741,-0.6507,-0.6616
6586,-1.8459,-10.5345,0.2322,2.1114,-0.7197,-0.6861
6594,-1.9058,-10.8074,0.1125,2.1472,-0.7826,-0.7072
6602,-1.9920,-11.1259,0.0192,2.1717,-0.8482,-0.7234
6609,-2.0614,-11.3270,-0.0168,2.1837,-0.9006,-0.7386
6618,-2.1261,-11.5520,-0.1508,2.1789,-0.9582,-0.7466
6626,-2.1715,-11.7579,-0.1053,2.1661,-1.0152,-0.7493
6634,-2.2745,-11.9686,-0.1867,2.1408,-1.0584,-0.7472
6642,-2.3080,-12.1745,-0.2658,2.1072,-1.0962,-0.7378
6650,-2.3679,-12.3014,-0.3184,2.0701,-1.1359,-0.7288
6658,-2.3750,-12.3972,-0.2921,2.0272,-1.1676,-0.7165
6666,-2.4038,-12.6246,-0.4741,1.9718,-1.1964,-0.7045
6674,-2.4373,-12.6821,-0.3687,1.9140,-1.2135,-0.6933
6682,-2.4253,-12.8425,-0.4764,1.8583,-1.2287,-0.6795
6690,-2.4062,-12.9933,-0.4094,1.7904,-1.2361,-0.6723
6697,-2.4972,-13.0915,-0.3496,1.7373,-1.2460,-0.6667
6706,-2.4924,-13.2351,-0.2658,1.6571,-1.2468,-0.6640
6714,-2.4732,-13.4171,-0.2921,1.6609,-1.2502,-0.6699
6722,-2.4493,-13.5272,-0.2274,1.6062,-1.2510,-0.6768
6730,-2.4517,-13.6422,-0.1389,1.6044,-1.2486,-0.6907
6738,-2.4732,-13.8481,-0.0407,1.5921,-1.2492,-0.7139
6746,-2.4086,-13.9558,-0.0359,1.5985,-1.2422,-0.7386
6754,-2.4852,-14.1521,-0.0790,1.6198,-1.2406,-0.7623
6762,-2.4900,-14.1952,0.0718,1.6363,-1.2393,-0.7882
6770,-2.5019,-14.4131,0.1556,1.6915,-1.2414,-0.8170
6778,-2.5618,-14.5663,0.2394,1.6843,-1.2292,-0.8455
6786,-2.5666,-14.6597,0.1867,1.7592,-1.2321,-0.8785
6794,-2.5905,-14.8297,0.1820,1.8165,-1.2300,-0.9121
6802,-2.6240,-14.9255,0.1628,1.8732,-1.2153,-0.9465
6810,-2.5857,-15.0045,0.1891,1.9343,-1.2020,-0.9867
6818,-2.5977,-15.1721,0.1700,1.9950,-1.1839,-1.0240
6827,-2.6312,-15.2774,0.1413,2.0472,-1.1684,-1.0661
6834,-2.6647,-15.4282,0.1484,2.1098,-1.1461,-1.1101
6842,-2.7270,-15.5575,0.1796,2.1573,-1.1189,-1.1525
6850,-2.6815,-15.6413,0.0718,2.2103,-1.0925,-1.1962
6858,-2.7294,-15.7227,0.1101,2.2601,-1.0682,-1.2433
6866,-2.7222,-15.8209,0.0072,2.3057,-1.0349,-1.2830
6874,-2.7821,-15.8400,0.0120,2.3446,-1.0003,-1.3243
6882,-2.7438,-15.8688,0.0096,2.3760,-0.9598,-1.3518
6890,-2.8491,-15.9071,0.0192,2.3992,-0.9238,-1.3792
6898,-2.8850,-15.8257,-0.1652,2.4110,-0.8788,-1.3923
6906,-2.8826,-15.8017,-0.1867,2.4110,-0.8447,-1.3965
6914,-2.9473,-15.6892,-0.2682,2.3974,-0.7970,-1.3925
6922,-2.9712,-15.5695,-0.2825,2.3747,-0.7530,-1.3824
6930,-2.9449,-15.4594,-0.3232,2.3462,-0.7045,-1.3566
6938,-2.9880,-15.2678,-0.3591,2.3089,-0.6598,-1.3257
6946,-3.0143,-15.1314,-0.4190,2.2548,-0.6099,-1.2878
6955,-2.9401,-14.8967,-0.4166,2.2058,-0.5569,-1.2476
6962,-2.9592,-14.7387,-0.3903,2.1437,-0.5076,-1.1993
6970,-2.8802,-14.5831,-0.3639,2.0744,-0.4607,-1.1554
6978,-2.8539,-14.3652,-0.5076,2.0078,-0.4149,-1.1088
6986,-2.8156,-14.1880,-0.4166,1.9364,-0.3706,-1.0669
6994,-2.6935,-14.0635,-0.3352,1.8740,-0.3309,-1.0269
7002,-2.6360,-13.9582,-0.3783,1.8141,-0.2942,-0.9934
7010,-2.6576,-13.7691,-0.3112,1.7650,-0.2643,-0.9630
7018,-2.5929,-13.6422,-0.2107,1.6966,-0.2358,-0.9390
7026,-2.5594,-13.5177,-0.1173,1.6710,-0.2132,-0.9113
7034,-2.4541,-13.4195,-0.1724,1.6691,-0.1929,-0.8889
7043,-2.4612,-13.1609,-0.0958,1.6086,-0.1759,-0.8697
7050,-2.4636,-13.1011,-0.1006,1.5937,-0.1593,-0.8569
7058,-2.4062,-12.9095,-0.0263,1.5777,-0.1529,-0.8455
7066,-2.3296,-12.8018,-0.0048,1.5591,-0.1537,-0.8290
7074,-2.3583,-12.6605,-0.0263,1.5561,-0.1620,-0.8116
7083,-2.2769,-12.4355,0.0335,1.5436,-0.1687,-0.8013
7090,-2.2362,-12.3541,0.1030,1.5338,-0.1796,-0.7901
7098,-2.1859,-12.1434,0.1437,1.5178,-0.1892,-0.7826
7106,-2.1189,-11.9806,0.0383,1.5092,-0.2006,-0.7730
7114,-2.1356,-11.7771,0.1125,1.5082,-0.2068,-0.7730
7122,-2.0494,-11.5712,0.0383,1.4989,-0.2182,-0.7735
7131,-1.9968,-11.3365,0.0335,1.4935,-0.2278,-0.7738
7138,-1.9920,-11.1426,0.0934,1.4815,-0.2459,-0.7786
7146,-1.9992,-10.9439,0.1006,1.4722,-0.2617,-0.7767
7154,-1.9465,-10.7045,0.0718,1.4573,-0.2864,-0.7770
7162,-1.9154,-10.5177,0.0694,1.4485,-0.3144,-0.7714
7171,-1.9728,-10.2544,-0.0120,1.4360,-0.3349,-0.7631
7178,-1.8196,-10.0820,-0.0479,1.4184,-0.3539,-0.7528
7186,-1.8268,-9.9575,-0.0335,1.3987,-0.3693,-0.7408
7194,-1.8603,-9.7157,0.0072,1.3720,-0.3858,-0.7248
7202,-1.8459,-9.5265,-0.0694,1.3395,-0.3954,-0.7064
7211,-1.8028,-9.3206,-0.0359,1.3025,-0.4082,-0.6853
7219,-1.8316,-9.1387,-0.1724,1.2574,-0.4146,-0.6627
7226,-1.7717,-8.8992,-0.1437,1.2049,-0.4202,-0.6358
7234,-1.7334,-8.7388,-0.1053,1.1463,-0.4226,-0.6043
7242,-1.7597,-8.5545,-0.1724,1.0893,-0.4399,-0.5652
7250,-1.7382,-8.3749,-0.2203,1.0312,-0.4487,-0.5316
7259,-1.6041,-8.2432,-0.1437,0.9689,-0.4623,-0.4922
7266,-1.6424,-8.1116,-0.1293,0.9054,-0.4644,-0.4485
7274,-1.6113,-7.9535,-0.2083,0.8399,-0.4668,-0.4109
7282,-1.6161,-7.8578,-0.2322,0.7727,-0.4620,-0.3685
7290,-1.6328,-7.6878,-0.2705,0.7005,-0.4546,-0.3283
7299,-1.5682,-7.6734,-0.2418,0.6320,-0.4450,-0.2923
7307,-1.5467,-7.4771,-0.2298,0.5521,-0.4333,-0.2521
7314,-1.4772,-7.3789,-0.2825,0.4764,-0.4215,-0.2094
7322,-1.5682,-7.2736,-0.2682,0.4008,-0.4175,-0.1724
7330,-1.4748,-7.2616,-0.3543,0.3269,-0.4106,-0.1258
7339,-1.5467,-7.1850,-0.2753,0.2558,-0.4010,-0.0842
7347,-1.5347,-7.1419,-0.1939,0.1887,-0.3880,-0.0392
7354,-1.4557,-7.0868,-0.3567,0.1218,-0.3720,0.0061
7362,-1.4868,-7.1108,-0.2729,0.0560,-0.3520,0.0514
7370,-1.4605,-7.0318,-0.2155,-0.0115,-0.3227,0.0917
7378,-1.4413,-7.0797,-0.2490,-0.0773,-0.2950,0.1375
7387,-1.4293,-6.9959,-0.2035,-0.1434,-0.2641,0.1831
7395,-1.4509,-6.9719,-0.3328,-0.2097,-0.2324,0.2228
7402,-1.4365,-7.0677,-0.2442,-0.2766,-0.2057,0.2681
7410,-1.4844,-7.1108,-0.1963,-0.3411,-0.1740,0.3107
7418,-1.5395,-7.1275,-0.2322,-0.4032,-0.1388,0.3573
7427,-1.4629,-7.1922,-0.2131,-0.4639,-0.0978,0.4053
7435,-1.4605,-7.3023,-0.2298,-0.5185,-0.0538,0.4495
7442,-1.4820,-7.4412,-0.1556,-0.5705,-0.0088,0.4919
7450,-1.5538,-7.4531,-0.1915,-0.6238,0.0392,0.5377
7458,-1.4341,-7.6160,-0.1101,-0.6736,0.0933,0.5777
7467,-1.5514,-7.7309,-0.0958,-0.7120,0.1492,0.6174
7475,-1.4892,-7.9009,0.0120,-0.7562,0.2009,0.6467
7482,-1.5227,-7.9918,-0.0311,-0.7949,0.2595,0.6776
7490,-1.5419,-8.1355,0.0934,-0.8295,0.3128,0.7061
7498,-1.5634,-8.2863,0.0168,-0.8609,0.3770,0.7349
7506,-1.5921,-8.5114,0.0934,-0.8982,0.4309,0.7623
7515,-1.6448,-8.6862,0.1030,-0.9305,0.4887,0.7829
7523,-1.7238,-8.8945,0.0192,-0.9667,0.5431,0.8034
7530,-1.6903,-9.0333,0.0000,-0.9990,0.5907,0.8247
7538,-1.6879,-9.3063,0.0215,-1.0325,0.6390,0.8455
7546,-1.7837,-9.5265,0.0599,-1.0669,0.6875,0.8540
7555,-1.7502,-9.7444,0.0790,-1.1013,0.7429,0.8708
7563,-1.8459,-9.9120,-0.0239,-1.1375,0.7890,0.8796
7570,-1.8699,-10.0389,-0.0168,-1.1714,0.8340,0.8911
7578,-1.8364,-10.2448,0.0982,-1.2055,0.8799,0.8985
7586,-1.8771,-10.3358,0.1724,-1.2412,0.9121,0.9108
7595,-2.0016,-10.5680,0.0694,-1.2724,0.9395,0.9190
7603,-2.0327,-10.7452,0.1413,-1.2982,0.9566,0.9342
7611,-1.9896,-10.9439,0.2538,-1.3219,0.9731,0.9419
7618,-1.9752,-11.0828,0.3496,-1.3400,0.9934,0.9518
7626,-2.0494,-11.2216,0.2969,-1.3560,1.0206,0.9542
7634,-2.0255,-11.4850,0.1844,-1.3771,1.0395,0.9534
7643,-2.0949,-11.6143,0.3041,-1.3976,1.0640,0.9558
7651,-2.0039,-11.7053,0.3160,-1.4149,1.0842,0.9454
7658,-2.1356,-11.9351,0.3089,-1.4301,1.1040,0.9438
7666,-2.1093,-12.0045,0.2658,-1.4506,1.1135,0.9379
7674,-2.2027,-12.1913,0.3376,-1.4658,1.1181,0.9318
7683,-2.2242,-12.3230,0.3639,-1.4829,1.1229,0.9300
7691,-2.2817,-12.4905,0.4741,-1.5050,1.1207,0.9273
7699,-2.3487,-12.6749,0.3639,-1.5156,1.1197,0.9217
7706,-2.3487,-12.8808,0.3663,-1.5362,1.1181,0.9206
7714,-2.3655,-13.0867,0.4334,-1.5593,1.1082,0.9212
7723,-2.4349,-13.2256,0.3376,-1.5796,1.1085,0.9196
7731,-2.4325,-13.3932,0.4166,-1.6097,1.1130,0.9196
7739,-2.4612,-13.4961,0.3017,-1.6473,1.1072,0.9212
7746,-2.4421,-13.6757,0.3017,-1.6878,1.1061,0.9212
7754,-2.5355,-13.8457,0.4046,-1.7280,1.0864,0.9252
7762,-2.5929,-13.9462,0.1844,-1.7760,1.0674,0.9326
7771,-2.6097,-14.1186,0.2538,-1.8127,1.0491,0.9350
7779,-2.6097,-14.2168,0.2753,-1.8604,1.0227,0.9427
7787,-2.6025,-14.3652,0.3855,-1.9007,1.0016,0.9449
7794,-2.6312,-14.5280,0.3543,-1.9409,0.9894,0.9435
7802,-2.6001,-14.6118,0.4836,-1.9742,0.9718,0.9441
7811,-2.5881,-14.6501,0.3711,-2.0070,0.9603,0.9363
7819,-2.6695,-14.7243,0.5004,-2.0408,0.9462,0.9286
7827,-2.6528,-14.7986,0.3974,-2.0707,0.9313,0.9217
7834,-2.6719,-14.8057,0.4573,-2.1008,0.8977,0.9169
7842,-2.6743,-14.8081,0.5100,-2.1277,0.8641,0.9065
7851,-2.6600,-14.8010,0.4908,-2.1477,0.8287,0.9060
7859,-2.6049,-14.7770,0.6129,-2.1666,0.7917,0.8990
7867,-2.6815,-14.8177,0.5411,-2.1786,0.7600,0.8932
7875,-2.6360,-14.7603,0.6225,-2.1863,0.7264,0.8849
7882,-2.6695,-14.7890,0.6081,-2.1882,0.6915,0.8807
7890,-2.6911,-14.7267,0.6249,-2.1842,0.6582,0.8729
7899,-2.5762,-14.7148,0.6177,-2.1815,0.6198,0.8652
7907,-2.5618,-14.6812,0.6919,-2.1810,0.5809,0.8548
7915,-2.6408,-14.5855,0.6488,-2.1775,0.5438,0.8487
7922,-2.5953,-14.4849,0.6536,-2.1607,0.5028,0.8420
7930,-2.5450,-14.4538,0.6823,-2.1517,0.4690,0.8340
7939,-2.5331,-14.3269,0.7087,-2.1357,0.4319,0.8300
7947,-2.5474,-14.2599,0.6249,-2.1154,0.3954,0.8223
7955,-2.5115,-14.2096,0.5674,-2.0928,0.3664,0.8162
7963,-2.4972,-14.0851,0.6800,-2.0677,0.3277,0.8095
7970,-2.4062,-14.0396,0.6393,-2.0416,0.2998,0.7975
7979,-2.4445,-13.9247,0.6536,-2.0185,0.2715,0.7890
7987,-2.4565,-13.8265,0.6105,-1.9939,0.2438,0.7781
7995,-2.4157,-13.6877,0.5890,-1.9732,0.2196,0.7687
8003,-2.3176,-13.5823,0.5315,-1.9497,0.2057,0.7615
8010,-2.3607,-13.3740,0.5315,-1.9271,0.1849,0.7525
8018,-2.2769,-13.2830,0.5674,-1.9089,0.1735,0.7442
8027,-2.2841,-13.1585,0.5435,-1.8855,0.1617,0.7389
8035,-2.2434,-13.0101,0.5124,-1.8642,0.1511,0.7309
8043,-2.2865,-12.8760,0.4764,-1.8471,0.1506,0.7253
8051,-2.2027,-12.7060,0.4597,-1.8255,0.1434,0.7213
8058,-2.1787,-12.5265,0.4908,-1.8079,0.1420,0.7139
8067,-2.1069,-12.4091,0.4022,-1.7848,0.1431,0.7096
8075,-2.0782,-12.2009,0.3831,-1.7642,0.1418,0.6979
8083,-2.1548,-11.9997,0.3687,-1.7469,0.1503,0.6931
8091,-1.9920,-11.8226,0.3184,-1.7304,0.1551,0.6845
8098,-1.9632,-11.5640,0.3496,-1.7064,0.1620,0.6749
8107,-2.0016,-11.3916,0.3424,-1.6806,0.1692,0.6696
8115,-1.9680,-11.2312,0.2682,-1.6558,0.1796,0.6622
8123,-1.8627,-11.0492,0.3160,-1.6302,0.1855,0.6534
8131,-1.8651,-10.8170,0.3352,-1.6038,0.1932,0.6454
8139,-1.8100,-10.5967,0.4094,-1.5745,0.2076,0.6315
8146,-1.7957,-10.4603,0.3089,-1.5442,0.2201,0.6201
8155,-1.7238,-10.3022,0.3376,-1.5122,0.2364,0.6083
8163,-1.6951,-10.1227,0.3711,-1.4762,0.2555,0.5945
8171,-1.6975,-9.9503,0.2945,-1.4408,0.2747,0.5782
8179,-1.7119,-9.8330,0.3783,-1.4045,0.2928,0.5577
8186,-1.5658,-9.6391,0.3687,-1.3587,0.3110,0.5436
8195,-1.5610,-9.4906,0.3496,-1.3121,0.3254,0.5239
8203,-1.5850,-9.4212,0.3759,-1.2681,0.3419,0.5057
8211,-1.5012,-9.2344,0.4501,-1.2153,0.3595,0.4828
8219,-1.4676,-9.1004,0.3232,-1.1642,0.3768,0.4591
8227,-1.4748,-8.9711,0.4357,-1.1088,0.3944,0.4386
8235,-1.4485,-8.7819,0.3376,-1.0501,0.4069,0.4133
8243,-1.4006,-8.7580,0.4118,-0.9878,0.4245,0.3861
8251,-1.3910,-8.6191,0.4262,-0.9260,0.4338,0.3552
8259,-1.4006,-8.5162,0.3807,-0.8599,0.4471,0.3267
8267,-1.3264,-8.4372,0.4836,-0.7943,0.4596,0.2963
8274,-1.3815,-8.3055,0.5171,-0.7264,0.4679,0.2681
8283,-1.3264,-8.2049,0.4812,-0.6582,0.4746,0.2398
8291,-1.2641,-8.0134,0.4214,-0.5878,0.4802,0.2078
8299,-1.2929,-7.9368,0.4238,-0.5135,0.4820,0.1785
8307,-1.2186,-7.7381,0.4262,-0.4445,0.4812,0.1535
8314,-1.2306,-7.8051,0.4429,-0.3765,0.4799,0.1231
8323,-1.2019,-7.6998,0.3903,-0.2966,0.4754,0.0954
8331,-1.2570,-7.6040,0.5459,-0.2140,0.4682,0.0671
8339,-1.1540,-7.5944,0.4094,-0.1364,0.4626,0.0368
8347,-1.1756,-7.6519,0.5124,-0.0584,0.4538,0.0000
8355,-1.2234,-7.5034,0.3184,0.0171,0.4495,-0.0229
8363,-1.1708,-7.5537,0.4357,0.0941,0.4386,-0.0552
8371,-1.1756,-7.4939,0.3017,0.1585,0.4279,-0.0866
8379,-1.2689,-7.4699,0.3543,0.2273,0.4128,-0.1159
8387,-1.1899,-7.5729,0.4286,0.2934,0.3906,-0.1399
8395,-1.2330,-7.5776,0.4238,0.3672,0.3629,-0.1641
8402,-1.1947,-7.6184,0.3663,0.4421,0.3275,-0.1892
8411,-1.2282,-7.6662,0.3448,0.5172,0.2944,-0.2094
8419,-1.2617,-7.7524,0.3998,0.5953,0.2611,-0.2380
8427,-1.2210,-7.9464,0.4022,0.6646,0.2318,-0.2702
8435,-1.2857,-8.0900,0.3304,0.7336,0.2009,-0.2979
8443,-1.3384,-8.2313,0.4597,0.8108,0.1503,-0.3206
8451,-1.3431,-8.4156,0.4477,0.8865,0.0983,-0.3501
8459,-1.3575,-8.4755,0.4094,0.9542,0.0485,-0.3800
8467,-1.3862,-8.5593,0.3160,1.0243,-0.0043,-0.4010
8475,-1.5131,-8.7173,0.3136,1.0800,-0.0520,-0.4173
8483,-1.5083,-8.8107,0.3998,1.1423,-0.1069,-0.4346
8491,-1.5443,-8.9471,0.3974,1.2113,-0.1575,-0.4501
8499,-1.5538,-9.1913,0.3615,1.2865,-0.2177,-0.4684
8507,-1.6041,-9.3374,0.3543,1.3584,-0.2726,-0.4890
8515,-1.6616,-9.5600,0.3711,1.4197,-0.3307,-0.5159
8523,-1.6520,-9.6774,0.2227,1.4773,-0.3832,-0.5446
8531,-1.6712,-9.9024,0.2227,1.5140,-0.4338,-0.5686
8539,-1.7980,-10.0604,0.1413,1.5500,-0.4836,-0.5891
8547,-1.8124,-10.2113,0.0910,1.5751,-0.5345,-0.6065
8555,-1.8028,-10.3813,0.0599,1.5988,-0.5814,-0.6217
8563,-1.9154,-10.5321,0.0287,1.6124,-0.6265,-0.6302
8571,-1.9704,-10.6877,0.1125,1.6318,-0.6694,-0.6352
8579,-1.9800,-10.8601,0.0120,1.6481,-0.7155,-0.6398
8587,-1.9800,-10.9032,0.1030,1.6457,-0.7576,-0.6411
8595,-2.0087,-11.0516,0.0239,1.6792,-0.7933,-0.6440
8603,-2.0925,-11.2815,-0.0096,1.6758,-0.8183,-0.6507
8611,-2.0399,-11.3365,0.0048,1.6750,-0.8479,-0.6595
8620,-2.1284,-11.5329,-0.0311,1.6742,-0.8796,-0.6624
8627,-2.1859,-11.7172,-0.1269,1.6745,-0.9068,-0.6662
8635,-2.1883,-11.9064,-0.0670,1.6731,-0.9236,-0.6696
8643,-2.2553,-12.0620,-0.1077,1.6726,-0.9427,-0.6728
8651,-2.2410,-12.1793,-0.0934,1.6675,-0.9595,-0.6765
8659,-2.2505,-12.3182,-0.1748,1.6363,-0.9694,-0.6797
8667,-2.2960,-12.4403,-0.1221,1.6286,-0.9761,-0.6872
8675,-2.2865,-12.6174,-0.0886,1.6379,-0.9816,-0.6960
8683,-2.3487,-12.8281,-0.1437,1.6313,-0.9824,-0.7093
8691,-2.3631,-13.0149,-0.0527,1.6294,-0.9827,-0.7322
8699,-2.3822,-13.0436,-0.0527,1.6454,-0.9840,-0.7445
8708,-2.3367,-13.2064,-0.0024,1.6443,-0.9883,-0.7605
8715,-2.3367,-13.3644,-0.0335,1.6113,-0.9830,-0.7791
8723,-2.3870,-13.4961,-0.0359,1.6529,-0.9766,-0.7975
8731,-2.4876,-13.4626,0.0215,1.6670,-0.9739,-0.8124
8739,-2.4636,-13.6062,0.0455,1.6686,-0.9723,-0.8268
8748,-2.5019,-13.7595,0.1245,1.6776,-0.9651,-0.8423
8755,-2.5067,-13.8433,0.0048,1.6862,-0.9550,-0.8657
8763,-2.4708,-13.8792,0.0359,1.7240,-0.9422,-0.8815
8771,-2.4517,-13.9079,-0.0024,1.7587,-0.9233,-0.9038
8779,-2.5043,-13.9582,0.0886,1.7821,-0.9062,-0.9281
8787,-2.4924,-14.0372,0.0934,1.8040,-0.8873,-0.9406
8795,-2.5139,-14.0492,-0.0359,1.8421,-0.8740,-0.9603
8803,-2.5402,-14.0540,0.0790,1.8674,-0.8553,-0.9798
8811,-2.5139,-14.1713,0.0215,1.8922,-0.8306,-0.9966
8819,-2.5450,-14.1473,0.0982,1.9199,-0.8095,-1.0136
8827,-2.5618,-14.1042,-0.0239,1.9441,-0.7842,-1.0336
8836,-2.5163,-14.1138,-0.0575,1.9596,-0.7464,-1.0464
8843,-2.5474,-14.0731,-0.0910,1.9689,-0.7147,-1.0528
8851,-2.6049,-14.0827,-0.0239,1.9780,-0.6861,-1.0584
8859,-2.6432,-14.0468,-0.0838,1.9814,-0.6611,-1.0568
8867,-2.6097,-14.0875,-0.1389,1.9854,-0.6416,-1.0528
8876,-2.6121,-14.1114,-0.0670,1.9825,-0.6185,-1.0435
8883,-2.6097,-14.0635,-0.1796,1.9801,-0.5886,-1.0376
8891,-2.6121,-14.0324,-0.1269,1.9745,-0.5502,-1.0328
8899,-2.5091,-13.9486,-0.2442,1.9558,-0.5167,-1.0219
8907,-2.6504,-13.8840,-0.1748,1.9404,-0.4799,-1.0086
8915,-2.5905,-13.7116,-0.1939,1.9177,-0.4514,-0.9928
8924,-2.5833,-13.7020,-0.2155,1.8874,-0.4309,-0.9745
8931,-2.5283,-13.5488,-0.2083,1.8554,-0.4058,-0.9518
8939,-2.5714,-13.5009,-0.2466,1.8202,-0.3869,-0.9310
8947,-2.5355,-13.3956,-0.2945,1.7832,-0.3619,-0.9073
8955,-2.4995,-13.3118,-0.1173,1.7584,-0.3373,-0.8884
8964,-2.4708,-13.1897,-0.2346,1.7336,-0.3059,-0.8695
8971,-2.4253,-13.0269,-0.2394,1.6625,-0.2801,-0.8529
8979,-2.4086,-13.0173,-0.1748,1.6675,-0.2593,-0.8396
8987,-2.3798,-12.8114,-0.1820,1.6113,-0.2419,-0.8247
8995,-2.3367,-12.5983,-0.1365,1.5990,-0.2356,-0.8066
9004,-2.3343,-12.3900,-0.1963,1.5551,-0.2252,-0.7930
9012,-2.3463,-12.1482,-0.1149,1.5226,-0.2166,-0.7741
9019,-2.2194,-12.0165,-0.0096,1.4909,-0.2140,-0.7554
9027,-2.2194,-11.8441,0.0311,1.4698,-0.2174,-0.7325
9035,-2.2362,-11.7986,-0.0168,1.4528,-0.2249,-0.7125
9043,-2.2290,-11.7076,-0.0263,1.4341,-0.2321,-0.6949
9052,-2.0949,-11.6143,0.0024,1.4184,-0.2377,-0.6819
9059,-2.1332,-11.4682,-0.0144,1.4000,-0.2494,-0.6739
9067,-2.0758,-11.2144,-0.0383,1.3776,-0.2497,-0.6595
9075,-2.0351,-11.0564,-0.0862,1.3510,-0.2577,-0.6550
9083,-1.9824,-10.8769,-0.0503,1.3217,-0.2579,-0.6443
9092,-1.9992,-10.6686,-0.1460,1.2870,-0.2619,-0.6312
9100,-1.9273,-10.5010,-0.0359,1.2569,-0.2811,-0.6137
9107,-1.9632,-10.3884,-0.0359,1.2327,-0.2979,-0.5918
9115,-1.9417,-10.2592,0.0551,1.2180,-0.3200,-0.5713
9123,-1.8747,-10.1538,0.0527,1.1948,-0.3469,-0.5510
9132,-1.9321,-10.1394,0.0168,1.1746,-0.3544,-0.5295
9140,-1.8531,-9.9335,0.0862,1.1567,-0.3592,-0.5204
9147,-1.7909,-9.8689,-0.1269,1.1314,-0.3667,-0.5116
9155,-1.8028,-9.7157,-0.0048,1.0946,-0.3648,-0.5068
9163,-1.7238,-9.5696,-0.0192,1.0621,-0.3738,-0.5002
9171,-1.7837,-9.4236,-0.1030,1.0208,-0.3797,-0.4826
9180,-1.7142,-9.2153,-0.0934,0.9790,-0.3914,-0.4674
9188,-1.7909,-9.0597,-0.1053,0.9401,-0.4034,-0.4407
9195,-1.7645,-8.9376,-0.0886,0.8884,-0.4183,-0.4125
9203,-1.7885,-8.7747,-0.0982,0.8519,-0.4274,-0.3818
9211,-1.6759,-8.7197,-0.1891,0.8071,-0.4354,-0.3504
9220,-1.6424,-8.7101,-0.0622,0.7645,-0.4341,-0.3224
9228,-1.6759,-8.6119,-0.1628,0.7213,-0.4327,-0.2939
9235,-1.6113,-8.4443,-0.2131,0.6696,-0.4221,-0.2702
9243,-1.6328,-8.3246,-0.2394,0.6107,-0.4080,-0.2451
9251,-1.5921,-8.2169,-0.1844,0.5473,-0.3949,-0.2214
9260,-1.5467,-8.0302,-0.1987,0.4826,-0.3834,-0.1924
9268,-1.5538,-7.9583,-0.2610,0.4173,-0.3741,-0.1644
9276,-1.5897,-7.8530,-0.2514,0.3565,-0.3685,-0.1306
9283,-1.5993,-7.7093,-0.1628,0.3016,-0.3637,-0.0911
9291,-1.5897,-7.7261,-0.1293,0.2513,-0.3579,-0.0482
9299,-1.5682,-7.7261,-0.0670,0.2020,-0.3421,-0.0101
9308,-1.5155,-7.7285,-0.1101,0.1636,-0.3160,0.0261
9316,-1.5083,-7.6710,-0.1532,0.1178,-0.2896,0.0597
9323,-1.5107,-7.6184,-0.1939,0.0674,-0.2582,0.0903
9331,-1.4988,-7.6303,-0.2849,0.0067,-0.2286,0.1178
9339,-1.5083,-7.6160,-0.1939,-0.0450,-0.1988,0.1482
9348,-1.5514,-7.6064,-0.1532,-0.1026,-0.1775,0.1775
9356,-1.5586,-7.6303,-0.1867,-0.1532,-0.1567,0.2108
9364,-1.5706,-7.6782,-0.1867,-0.2094,-0.1311,0.2505
9371,-1.5921,-7.7548,-0.1006,-0.2587,-0.1026,0.2902
9379,-1.5754,-7.8865,-0.0910,-0.3032,-0.0629,0.3280
9388,-1.5802,-7.9895,-0.1676,-0.3483,-0.0226,0.3669
9396,-1.5874,-8.0709,-0.2394,-0.4050,0.0221,0.4032
9404,-1.6328,-8.2265,-0.3065,-0.4602,0.0682,0.4357
9411,-1.6209,-8.3007,-0.1939,-0.5212,0.1164,0.4695
9419,-1.6233,-8.2959,-0.2801,-0.5820,0.1543,0.5049
9427,-1.6400,-8.3438,-0.1796,-0.6339,0.1900,0.5377
9436,-1.7286,-8.4420,-0.1245,-0.6867,0.2276,0.5737
9444,-1.6616,-8.5665,-0.0503,-0.7242,0.2702,0.6081
9452,-1.6688,-8.6024,0.0790,-0.7602,0.3168,0.6398
9459,-1.6424,-8.7867,0.0239,-0.7927,0.3531,0.6707
9467,-1.7071,-9.0237,0.0215,-0.8226,0.3962,0.6947
9476,-1.6975,-9.1985,0.0335,-0.8516,0.4378,0.7155
9484,-1.7166,-9.3063,-0.1006,-0.8863,0.4826,0.7274
9492,-1.7214,-9.4308,-0.0072,-0.9289,0.5247,0.7402
9499,-1.7262,-9.4858,-0.1077,-0.9665,0.5646,0.7474
9507,-1.7310,-9.6007,0.0144,-1.0006,0.6030,0.7608
9516,-1.7406,-9.6702,0.0527,-1.0312,0.6366,0.7685
9524,-1.8292,-9.7875,0.1389,-1.0501,0.6694,0.7797
9532,-1.8244,-9.8976,0.1700,-1.0664,0.6952,0.7983
9540,-1.8507,-10.0772,0.2203,-1.0808,0.7202,0.8100
9547,-1.8890,-10.2568,0.2418,-1.0909,0.7530,0.8223
9555,-1.9489,-10.5249,0.1963,-1.1056,0.7858,0.8298
9564,-1.9273,-10.6255,0.1796,-1.1298,0.8218,0.8340
9572,-1.9728,-10.7691,0.1460,-1.1562,0.8561,0.8330
9580,-1.9609,-10.9535,0.1556,-1.1826,0.8852,0.8284
9587,-2.0135,-11.0540,0.2035,-1.2063,0.9153,0.8319
9595,-2.0063,-11.1546,0.2897,-1.2332,0.9334,0.8282
9604,-2.0734,-11.3246,0.2298,-1.2548,0.9409,0.8364
9612,-2.1284,-11.4922,0.3136,-1.2646,0.9478,0.8388
9620,-2.0997,-11.6167,0.2993,-1.2809,0.9515,0.8412
9628,-2.1596,-11.7076,0.2873,-1.2961,0.9505,0.8436
9635,-2.1739,-11.9495,0.3160,-1.3091,0.9601,0.8434
9644,-2.1404,-12.0811,0.2705,-1.3195,0.9699,0.8378
9652,-2.1739,-12.1913,0.1796,-1.3395,0.9721,0.8284
9660,-2.2003,-12.3924,0.2729,-1.3715,0.9795,0.8199
9668,-2.2098,-12.4858,0.2251,-1.3995,0.9755,0.8170
9675,-2.3367,-12.4929,0.2801,-1.4325,0.9678,0.8119
9683,-2.3320,-12.5983,0.2562,-1.4653,0.9497,0.8170
9692,-2.3200,-12.7204,0.2705,-1.4975,0.9355,0.8218
9700,-2.4253,-12.8114,0.3017,-1.5271,0.9225,0.8287
9708,-2.3822,-12.9502,0.2562,-1.5585,0.9073,0.8298
9715,-2.3343,-12.9981,0.2274,-1.5892,0.8969,0.8431
9723,-2.4062,-13.1537,0.1317,-1.6222,0.8897,0.8439
9732,-2.3870,-13.1274,0.2083,-1.6598,0.8836,0.8447
9740,-2.4157,-13.1873,0.3065,-1.6926,0.8745,0.8458
9748,-2.3894,-13.2304,0.2370,-1.7363,0.8567,0.8420
9756,-2.4373,-13.3022,0.3567,-1.7688,0.8346,0.8458
9763,-2.4708,-13.4195,0.4094,-1.7965,0.8055,0.8521
9772,-2.4493,-13.4027,0.4190,-1.8207,0.7826,0.8545
9780,-2.4684,-13.4554,0.4070,-1.8349,0.7536,0.8535
9788,-2.4780,-13.5129,0.3376,-1.8474,0.7370,0.8505
9796,-2.3894,-13.6158,0.3903,-1.8546,0.7125,0.8484
9803,-2.3822,-13.6134,0.4094,-1.8684,0.6904,0.8404
9811,-2.4636,-13.6374,0.4405,-1.8762,0.6718,0.8295
9820,-2.4086,-13.6853,0.4238,-1.8842,0.6512,0.8215
9828,-2.4804,-13.7044,0.4525,-1.8985,0.6259,0.8151
9836,-2.4134,-13.6972,0.4764,-1.9031,0.5934,0.8079
9844,-2.4205,-13.6565,0.4501,-1.9095,0.5668,0.8042
9851,-2.4612,-13.6996,0.5578,-1.9081,0.5337,0.7946
9860,-2.4110,-13.6062,0.4645,-1.9044,0.5151,0.7898
9868,-2.3774,-13.6039,0.5363,-1.8977,0.4860,0.7799
9876,-2.4301,-13.5560,0.4573,-1.8852,0.4575,0.7757
9884,-2.3607,-13.4985,0.4980,-1.8695,0.4306,0.7631
9891,-2.3774,-13.3860,0.4884,-1.8508,0.4026,0.7530
9900,-2.3439,-13.3285,0.4501,-1.8349,0.3749,0.7432
9908,-2.3272,-13.2639,0.5722,-1.8173,0.3547,0.7317
9916,-2.2577,-13.1083,0.5171,-1.7997,0.3333,0.7202
9924,-2.2960,-13.0676,0.5267,-1.7832,0.3107,0.7075
9932,-2.2362,-12.9239,0.5531,-1.7661,0.2990,0.6984
9939,-2.1979,-12.7850,0.4884,-1.7448,0.2779,0.6861
9948,-2.1404,-12.7156,0.4669,-1.7179,0.2654,0.6781
9956,-2.1811,-12.6318,0.4381,-1.6936,0.2507,0.6694
9964,-2.2003,-12.4618,0.4094,-1.6771,0.2385,0.6600
9972,-2.1476,-12.3206,0.3831,-1.6563,0.2233,0.6475
9979,-2.1452,-12.2152,0.3974,-1.6393,0.2164,0.6414
9988,-2.1093,-12.0883,0.4788,-1.6217,0.2118,0.6355
9996,-2.1165,-11.9399,0.3663,-1.6049,0.2052,0.6281
10004,-2.0494,-11.8393,0.3448,-1.5889,0.2041,0.6251
10012,-2.0327,-11.7436,0.3879,-1.5689,0.1998,0.6169
10020,-2.0279,-11.5784,0.3208,-1.5513,0.2062,0.6134
10028,-1.9728,-11.5137,0.3400,-1.5308,0.2044,0.6097
10036,-1.9656,-11.4036,0.3496,-1.5154,0.2089,0.6030
10044,-1.9609,-11.2695,0.4190,-1.4930,0.2137,0.5921
10052,-1.9130,-11.1618,0.3567,-1.4706,0.2217,0.5825
10060,-1.9297,-10.9870,0.2610,-1.4496,0.2225,0.5732
10067,-1.9321,-10.8074,0.2921,-1.4290,0.2313,0.5630
10076,-1.8531,-10.7236,0.2945,-1.4019,0.2329,0.5497
10084,-1.7909,-10.6518,0.4238,-1.3752,0.2377,0.5393
10092,-1.7717,-10.4459,0.2274,-1.3400,0.2459,0.5252
10100,-1.7454,-10.3717,0.4070,-1.3099,0.2531,0.5111
10108,-1.7478,-10.1849,0.3472,-1.2758,0.2566,0.4946
10116,-1.7502,-10.0485,0.3472,-1.2422,0.2673,0.4796
10124,-1.7119,-9.9647,0.4094,-1.2020,0.2774,0.4623
10132,-1.6640,-9.8545,0.3065,-1.1658,0.2862,0.4471
10140,-1.6448,-9.7492,0.4070,-1.1269,0.2960,0.4290
10148,-1.6496,-9.5600,0.2682,-1.0808,0.3040,0.4064
10156,-1.5203,-9.3805,0.3112,-1.0424,0.3118,0.3877
10164,-1.5155,-9.3015,0.4190,-0.9947,0.3211,0.3661
10172,-1.5179,-9.1818,0.4070,-0.9457,0.3264,0.3464
10180,-1.5107,-9.0261,0.3855,-0.8950,0.3349,0.3256
10188,-1.4748,-8.9567,0.3974,-0.8415,0.3435,0.2987
10196,-1.4102,-8.8322,0.3926,-0.7858,0.3523,0.2795
10204,-1.4317,-8.6790,0.3974,-0.7320,0.3549,0.2523
10212,-1.4126,-8.6550,0.3591,-0.6760,0.3597,0.2294
10220,-1.3886,-8.5401,0.4525,-0.6225,0.3698,0.2033
10228,-1.4246,-8.4324,0.4621,-0.5614,0.3698,0.1796
10236,-1.3312,-8.3869,0.4262,-0.5060,0.3712,0.1580
10244,-1.3503,-8.2935,0.3567,-0.4490,0.3725,0.1279
10252,-1.3168,-8.2552,0.3783,-0.3837,0.3685,0.1053
10260,-1.3647,-8.2480,0.3974,-0.3240,0.3645,0.0778
10268,-1.3408,-8.1666,0.4046,-0.2553,0.3632,0.0517
10276,-1.3192,-8.2001,0.4501,-0.1903,0.3584,0.0226
10285,-1.2929,-8.2384,0.3831,-0.1303,0.3560,-0.0008
10292,-1.3336,-8.1570,0.3663,-0.0640,0.3525,-0.0282
10300,-1.3024,-8.1307,0.4118,-0.0016,0.3395,-0.0533
10308,-1.3072,-8.1331,0.4717,0.0613,0.3277,-0.0773
10316,-1.2881,-8.1810,0.3855,0.1271,0.3102,-0.1082
10324,-1.3288,-8.2145,0.3998,0.1863,0.2934,-0.1300
10332,-1.3815,-8.2456,0.3472,0.2523,0.2697,-0.1556
10340,-1.3671,-8.2720,0.4262,0.3142,0.2454,-0.1804
10348,-1.3862,-8.2696,0.3687,0.3770,0.2148,-0.2012
10356,-1.3958,-8.3797,0.3903,0.4413,0.1879,-0.2273
10364,-1.4365,-8.4156,0.4238,0.5023,0.1522,-0.2454
10372,-1.3958,-8.4683,0.4908,0.5638,0.1151,-0.2654
10380,-1.4174,-8.5473,0.4405,0.6230,0.0717,-0.2854
10388,-1.4581,-8.6072,0.3783,0.6829,0.0360,-0.3056
10396,-1.4748,-8.6766,0.3304,0.7378,0.0005,-0.3240
10404,-1.5275,-8.6957,0.3400,0.7959,-0.0368,-0.3416
10413,-1.5275,-8.8107,0.3735,0.8471,-0.0711,-0.3600
10420,-1.5347,-8.9447,0.3232,0.8926,-0.1106,-0.3792
10428,-1.5562,-8.9639,0.2873,0.9430,-0.1396,-0.3946
10436,-1.5945,-9.1004,0.1891,0.9934,-0.1735,-0.4112
10444,-1.5658,-9.2488,0.2849,1.0341,-0.2073,-0.4309
10452,-1.6065,-9.3398,0.3400,1.0816,-0.2390,-0.4477
10460,-1.6640,-9.4691,0.2705,1.1229,-0.2769,-0.4676
10468,-1.6879,-9.6079,0.1891,1.1575,-0.3051,-0.4836
10476,-1.7454,-9.7755,0.1437,1.1927,-0.3421,-0.4978
10484,-1.7286,-9.8737,0.2131,1.2353,-0.3784,-0.5161
10492,-1.7502,-9.9886,0.2035,1.2657,-0.4085,-0.5257
10501,-1.8124,-10.2065,0.2059,1.3030,-0.4429,-0.5369
10508,-1.7909,-10.3166,0.2658,1.3299,-0.4727,-0.5500
10516,-1.8531,-10.5105,0.1604,1.3590,-0.5052,-0.5622
10524,-1.8866,-10.5967,0.1437,1.3843,-0.5311,-0.5689
10532,-2.0279,-10.7619,0.1580,1.4013,-0.5662,-0.5796
10541,-1.9537,-10.9128,0.0527,1.4213,-0.5923,-0.5875
10548,-2.0159,-11.0325,0.0335,1.4354,-0.6174,-0.5934
10556,-2.0686,-11.1259,-0.0551,1.4485,-0.6443,-0.6001
10564,-2.0255,-11.2456,-0.0527,1.4578,-0.6678,-0.6059
10572,-2.0710,-11.4610,0.0742,1.4695,-0.6885,-0.6161
10580,-2.0806,-11.5281,-0.0551,1.4786,-0.7029,-0.6185
10589,-2.0877,-11.6981,0.0000,1.4807,-0.7213,-0.6267
10596,-2.0710,-11.7914,-0.0168,1.4882,-0.7341,-0.6336
10604,-2.1284,-11.8321,0.0359,1.4914,-0.7440,-0.6411
10612,-2.1811,-11.8728,-0.0455,1.4925,-0.7517,-0.6496
10620,-2.1907,-12.0668,0.0048,1.4919,-0.7634,-0.6584
10629,-2.1644,-12.1386,0.0000,1.4983,-0.7706,-0.6683
10636,-2.1739,-12.2368,0.0742,1.5010,-0.7762,-0.6768
10644,-2.2601,-12.3373,0.0311,1.5079,-0.7861,-0.6912
10652,-2.2841,-12.3852,-0.0455,1.5114,-0.7853,-0.6992
10660,-2.2266,-12.4331,0.0168,1.5223,-0.7842,-0.7096
10669,-2.2577,-12.5217,0.0575,1.5279,-0.7829,-0.7213
10677,-2.2960,-12.6174,0.1413,1.5442,-0.7810,-0.7277
10684,-2.2338,-12.6749,0.0096,1.5505,-0.7853,-0.7429
10692,-2.2984,-12.7228,0.0814,1.5705,-0.7765,-0.7512
10700,-2.3224,-12.7922,-0.0407,1.5825,-0.7727,-0.7615
10708,-2.3224,-12.9646,0.0527,1.5897,-0.7663,-0.7749
10717,-2.2745,-12.9598,0.0646,1.6193,-0.7589,-0.7877
10724,-2.3559,-13.0197,0.0838,1.6286,-0.7485,-0.7949
10732,-2.3415,-13.0652,0.1101,1.6539,-0.7373,-0.8060
10740,-2.3631,-13.1202,0.0479,1.6630,-0.7250,-0.8188
10748,-2.3679,-13.1657,0.0958,1.6787,-0.7109,-0.8300
10757,-2.3631,-13.1897,-0.0144,1.6755,-0.7005,-0.8402
10765,-2.4062,-13.2280,0.0215,1.6750,-0.6805,-0.8463
10772,-2.3607,-13.2878,-0.0551,1.6763,-0.6678,-0.8492
10780,-2.3942,-13.2351,-0.0383,1.6755,-0.6542,-0.8577
10788,-2.3846,-13.2639,-0.0239,1.6811,-0.6323,-0.8577
10797,-2.4588,-13.2375,-0.0455,1.6811,-0.6185,-0.8609
10805,-2.4086,-13.1777,0.0000,1.6747,-0.6014,-0.8569
10812,-2.4493,-13.2160,-0.0431,1.6824,-0.5761,-0.8577
10820,-2.4181,-13.1418,-0.0168,1.6779,-0.5513,-0.8569
10828,-2.3894,-13.1130,-0.1365,1.6784,-0.5297,-0.8497
10836,-2.3870,-13.0484,-0.1293,1.6737,-0.5049,-0.8434
10845,-2.3942,-13.0436,-0.0862,1.6739,-0.4783,-0.8354
10852,-2.4205,-12.9095,-0.1772,1.6742,-0.4610,-0.8266
10860,-2.3559,-12.8473,-0.1652,1.6718,-0.4375,-0.8178
10868,-2.4349,-12.7563,-0.1269,1.6707,-0.4149,-0.8042
10876,-2.3846,-12.6366,-0.0862,1.6204,-0.3981,-0.7935
10885,-2.3415,-12.5672,-0.1245,1.6273,-0.3746,-0.7810
10893,-2.3367,-12.4427,-0.1125,1.5953,-0.3592,-0.7695
10900,-2.3176,-12.4451,-0.1939,1.5753,-0.3392,-0.7584
10908,-2.3463,-12.2799,-0.0910,1.5457,-0.3238,-0.7397
10916,-2.2817,-12.1578,-0.0670,1.5271,-0.3094,-0.7317
10925,-2.2649,-12.0596,-0.1460,1.5052,-0.2982,-0.7133
10933,-2.2865,-11.9423,-0.0096,1.4799,-0.2854,-0.7029
10940,-2.2410,-11.8489,-0.0958,1.4544,-0.2753,-0.6843
10948,-2.1883,-11.7651,-0.0048,1.4376,-0.2691,-0.6659
10956,-2.1644,-11.6215,-0.0958,1.4077,-0.2643,-0.6534
10964,-2.1476,-11.5448,-0.0886,1.3856,-0.2587,-0.6403
10973,-2.1045,-11.4539,-0.0455,1.3630,-0.2579,-0.6241
10981,-2.1644,-11.4419,-0.0814,1.3355,-0.2513,-0.6139
10988,-2.1045,-11.2216,-0.1030,1.3075,-0.2481,-0.6062
10996,-2.0758,-11.1043,-0.0120,1.2812,-0.2486,-0.5875
11004,-2.0782,-10.9918,-0.1173,1.2553,-0.2518,-0.5769
11013,-2.0710,-10.8960,-0.0838,1.2249,-0.2505,-0.5598
11021,-2.0087,-10.6997,-0.0934,1.1977,-0.2550,-0.5486
11028,-1.9704,-10.6374,-0.0646,1.1700,-0.2670,-0.5279
11036,-2.0590,-10.5297,0.0144,1.1463,-0.2705,-0.5103
11044,-2.0016,-10.3765,-0.0790,1.1186,-0.2817,-0.4932
11053,-1.9489,-10.3070,-0.0144,1.0914,-0.2854,-0.4804
11061,-1.8483,-10.1466,-0.0144,1.0640,-0.2851,-0.4631
11069,-1.8651,-10.0987,-0.0383,1.0363,-0.2923,-0.4527
11076,-1.8411,-9.9479,0.0215,1.0062,-0.2968,-0.4357
11084,-1.8435,-9.7779,-0.0910,0.9713,-0.3019,-0.4202
11092,-1.8531,-9.6127,-0.0287,0.9433,-0.3056,-0.4037
11101,-1.7789,-9.5361,-0.0551,0.9089,-0.3144,-0.3848
11109,-1.8124,-9.3948,-0.0551,0.8791,-0.3195,-0.3667
11116,-1.7885,-9.3374,-0.0670,0.8450,-0.3341,-0.3456
11124,-1.7526,-9.2344,-0.0144,0.8092,-0.3363,-0.3291
11132,-1.7741,-9.0836,-0.0551,0.7765,-0.3403,-0.3030
11141,-1.7597,-9.0166,-0.0670,0.7400,-0.3408,-0.2840
11149,-1.6975,-8.9399,-0.1101,0.7024,-0.3432,-0.2681
11157,-1.7502,-8.8609,-0.1245,0.6659,-0.3389,-0.2465
11164,-1.6592,-8.7317,-0.1317,0.6251,-0.3411,-0.2270
11172,-1.6328,-8.7077,-0.0790,0.5875,-0.3429,-0.2049
11181,-1.6424,-8.6311,-0.1173,0.5423,-0.3317,-0.1807
11189,-1.6855,-8.4803,-0.1221,0.4943,-0.3328,-0.1593
11197,-1.6161,-8.4228,-0.1556,0.4527,-0.3238,-0.1338
11204,-1.6735,-8.3582,-0.0694,0.4088,-0.3227,-0.1050
11212,-1.6209,-8.3079,-0.1939,0.3619,-0.3136,-0.0773
11220,-1.6496,-8.2744,-0.0886,0.3168,-0.3043,-0.0477
11229,-1.6424,-8.2887,-0.0718,0.2723,-0.2920,-0.0187
11237,-1.5850,-8.3007,-0.1030,0.2252,-0.2745,0.0077
11245,-1.6376,-8.3007,-0.1724,0.1809,-0.2539,0.0344
11252,-1.6137,-8.2169,-0.1820,0.1308,-0.2345,0.0613
11260,-1.6041,-8.2313,-0.1652,0.0829,-0.2148,0.0874
11269,-1.5826,-8.2504,-0.1844,0.0357,-0.1905,0.1148
11277,-1.6831,-8.2097,-0.2466,-0.0197,-0.1676,0.1447
11285,-1.6161,-8.2097,-0.0958,-0.0695,-0.1375,0.1761
11292,-1.6185,-8.1930,-0.1317,-0.1130,-0.1138,0.2057
11300,-1.6257,-8.2672,-0.1700,-0.1660,-0.0847,0.2380
11309,-1.6640,-8.2265,-0.1915,-0.2060,-0.0504,0.2694
11317,-1.6185,-8.2887,-0.1077,-0.2537,-0.0195,0.3016
11325,-1.5778,-8.3366,-0.0982,-0.2928,0.0203,0.3315
11333,-1.6065,-8.3677,-0.0886,-0.3437,0.0554,0.3589
11340,-1.5586,-8.4994,-0.0575,-0.3824,0.0898,0.3858
11348,-1.5945,-8.5521,-0.1149,-0.4279,0.1212,0.4104
11357,-1.6281,-8.6143,-0.0910,-0.4695,0.1599,0.4370
11365,-1.6783,-8.6359,0.0551,-0.5129,0.1916,0.4655
11373,-1.6352,-8.7484,-0.0407,-0.5484,0.2348,0.4890
11380,-1.6520,-8.7628,0.0359,-0.5878,0.2694,0.5108
11388,-1.6448,-8.8442,-0.0599,-0.6214,0.3059,0.5345
11397,-1.6352,-8.9830,0.0718,-0.6558,0.3427,0.5553
11405,-1.6951,-9.0860,-0.0168,-0.6901,0.3797,0.5740
11413,-1.6472,-9.1985,-0.0503,-0.7216,0.4170,0.5886
11421,-1.7023,-9.3278,0.0263,-0.7560,0.4533,0.6062
11428,-1.7262,-9.4379,0.0527,-0.7887,0.4842,0.6177
11437,-1.7597,-9.5816,0.0311,-0.8207,0.5161,0.6336
11445,-1.7861,-9.6247,0.1053,-0.8476,0.5415,0.6491
11453,-1.8028,-9.7516,0.0359,-0.8767,0.5665,0.6592
11461,-1.8004,-9.8617,0.1077,-0.9054,0.5931,0.6723
11468,-1.8603,-9.9695,0.0862,-0.9316,0.6091,0.6816
11476,-1.8172,-10.1418,0.0599,-0.9515,0.6347,0.6928
11485,-1.8411,-10.2975,0.1484,-0.9755,0.6510,0.7000
11493,-1.9393,-10.3525,0.1604,-1.0030,0.6702,0.7067
11501,-1.9345,-10.5034,0.1269,-1.0293,0.6856,0.7136
11508,-1.9082,-10.5848,0.1628,-1.0461,0.7003,0.7152
11516,-1.8938,-10.6542,0.1365,-1.0738,0.7104,0.7229
11525,-1.9992,-10.8553,0.2035,-1.0896,0.7213,0.7264
11533,-2.0470,-10.8816,0.1365,-1.1125,0.7296,0.7312
11541,-1.9249,-11.0205,0.1820,-1.1303,0.7386,0.7349
11549,-1.9728,-11.0756,0.1987,-1.1535,0.7458,0.7384
11556,-2.0710,-11.2408,0.2418,-1.1722,0.7514,0.7402
11565,-2.0183,-11.3437,0.2251,-1.1871,0.7621,0.7442
11573,-2.0542,-11.3772,0.2179,-1.2137,0.7639,0.7474
11581,-2.0853,-11.5568,0.2251,-1.2335,0.7690,0.7504
11589,-2.1691,-11.6454,0.1652,-1.2500,0.7682,0.7546
11596,-2.1859,-11.7124,0.1891,-1.2761,0.7706,0.7549
11604,-2.1596,-11.7771,0.2514,-1.2998,0.7637,0.7554
11613,-2.1308,-11.9566,0.2969,-1.3177,0.7589,0.7631
11621,-2.2098,-11.9878,0.2394,-1.3406,0.7570,0.7674
11629,-2.1524,-12.0404,0.3065,-1.3656,0.7525,0.7663
11637,-2.1572,-12.1099,0.2538,-1.3912,0.7509,0.7682
11644,-2.2458,-12.2559,0.3208,-1.4123,0.7464,0.7685
11653,-2.2458,-12.3541,0.2227,-1.4349,0.7397,0.7674
11661,-2.2434,-12.3684,0.2682,-1.4568,0.7352,0.7719
11669,-2.2553,-12.5241,0.2945,-1.4837,0.7277,0.7717
11677,-2.2745,-12.5576,0.2418,-1.5076,0.7186,0.7722
11684,-2.2625,-12.6127,0.2682,-1.5322,0.7072,0.7658
11693,-2.3272,-12.6797,0.4429,-1.5519,0.6912,0.7682
11701,-2.1907,-12.6965,0.3950,-1.5705,0.6755,0.7661
11709,-2.3176,-12.7443,0.2179,-1.5910,0.6616,0.7629
11717,-2.3152,-12.7108,0.2634,-1.6068,0.6502,0.7570
11725,-2.3535,-12.7443,0.2753,-1.6193,0.6398,0.7560
11732,-2.2625,-12.7922,0.4214,-1.6369,0.6283,0.7461
11741,-2.2745,-12.8329,0.3304,-1.6515,0.6145,0.7418
11749,-2.3535,-12.8736,0.3567,-1.6630,0.5926,0.7408
11757,-2.3415,-12.8018,0.3424,-1.6689,0.5708,0.7354
11765,-2.2553,-12.8569,0.4094,-1.6768,0.5497,0.7312
11772,-2.2745,-12.7826,0.3472,-1.6798,0.5284,0.7272
11781,-2.2601,-12.8042,0.3831,-1.6782,0.5004,0.7197
11789,-2.2170,-12.7755,0.4070,-1.6729,0.4823,0.7112
11797,-2.1883,-12.7515,0.4214,-1.6673,0.4631,0.7029
11805,-2.1835,-12.7467,0.3519,-1.6641,0.4423,0.6979
11813,-2.2290,-12.6797,0.4262,-1.6587,0.4226,0.6869
11821,-2.1811,-12.5600,0.4214,-1.6467,0.4024,0.6811
11829,-2.1787,-12.5384,0.4764,-1.6371,0.3824,0.6734
11837,-2.2051,-12.4882,0.3855,-1.6284,0.3640,0.6640
11845,-2.2122,-12.4355,0.4286,-1.6113,0.3445,0.6571
11853,-2.1691,-12.3732,0.4190,-1.5988,0.3304,0.6483
11860,-2.1021,-12.2631,0.4741,-1.5817,0.3216,0.6419
11869,-2.1117,-12.2631,0.4525,-1.5676,0.3078,0.6326
11877,-2.1069,-12.1649,0.4812,-1.5479,0.2926,0.6227
11885,-2.0686,-12.0165,0.4812,-1.5311,0.2867,0.6153
11893,-2.0758,-12.0309,0.4549,-1.5116,0.2742,0.6091
11901,-2.0590,-11.8705,0.3615,-1.4893,0.2686,0.5998
11909,-2.0470,-11.8657,0.3663,-1.4727,0.2606,0.5942
11917,-2.0734,-11.7388,0.3974,-1.4509,0.2539,0.5836
11925,-2.0494,-11.6574,0.3543,-1.4317,0.2430,0.5732
11933,-2.0375,-11.5281,0.4262,-1.4112,0.2334,0.5625
11941,-1.9249,-11.4036,0.3448,-1.3888,0.2348,0.5542
11949,-1.9632,-11.3150,0.3376,-1.3757,0.2321,0.5452
11957,-1.9417,-11.2073,0.4334,-1.3544,0.2332,0.5329
11965,-1.9537,-11.1857,0.3903,-1.3331,0.2388,0.5220
11973,-1.8699,-10.9678,0.2346,-1.3107,0.2395,0.5121
11981,-1.8651,-10.9487,0.3950,-1.2905,0.2465,0.4996
11990,-1.9130,-10.8362,0.3160,-1.2724,0.2459,0.4884
11997,-1.8435,-10.6494,0.2490,-1.2505,0.2547,0.4786
12005,-1.8244,-10.6063,0.3543,-1.2244,0.2539,0.4660
12013,-1.7861,-10.5273,0.2753,-1.2017,0.2566,0.4530
12021,-1.7980,-10.3645,0.3567,-1.1810,0.2577,0.4415
12029,-1.7933,-10.2783,0.3711,-1.1527,0.2622,0.4290
12037,-1.7789,-10.1059,0.4142,-1.1261,0.2670,0.4112
12045,-1.6879,-10.0269,0.3424,-1.0968,0.2723,0.3992
12053,-1.6879,-9.9455,0.3591,-1.0648,0.2779,0.3853
12061,-1.6352,-9.8761,0.3112,-1.0344,0.2848,0.3680
12069,-1.6759,-9.6917,0.3519,-1.0003,0.2878,0.3520
12078,-1.6137,-9.6127,0.3232,-0.9630,0.2878,0.3360
12085,-1.6185,-9.5026,0.3519,-0.9286,0.2963,0.3203
12093,-1.5754,-9.4571,0.3735,-0.8889,0.2995,0.3027
12101,-1.5083,-9.3206,0.3567,-0.8463,0.2984,0.2854
12109,-1.5347,-9.2919,0.3089,-0.8029,0.3016,0.2667
12118,-1.5682,-9.1554,0.3711,-0.7642,0.3038,0.2478
12125,-1.5490,-9.1195,0.4214,-0.7176,0.3088,0.2276
12133,-1.4892,-9.0549,0.3567,-0.6718,0.3110,0.2022
12141,-1.4844,-8.9615,0.3615,-0.6219,0.3110,0.1849
12149,-1.4820,-8.8777,0.4693,-0.5721,0.3094,0.1652
12157,-1.4724,-8.8992,0.3998,-0.5223,0.3051,0.1428
12165,-1.4892,-8.7795,0.3783,-0.4722,0.3046,0.1223
12173,-1.4653,-8.7101,0.4238,-0.4231,0.3008,0.1037
12181,-1.4772,-8.6550,0.4405,-0.3698,0.2966,0.0778
12189,-1.4341,-8.6215,0.3472,-0.3179,0.2891,0.0578
12197,-1.3958,-8.5880,0.3376,-0.2609,0.2790,0.0341
12206,-1.3982,-8.6191,0.3376,-0.2022,0.2766,0.0157
12213,-1.4485,-8.5305,0.3687,-0.1476,0.2633,-0.0072
12221,-1.4437,-8.5545,0.4381,-0.0914,0.2531,-0.0298
12229,-1.4293,-8.5138,0.4166,-0.0378,0.2348,-0.0557
12237,-1.3886,-8.5162,0.3543,0.0195,0.2230,-0.0783
12246,-1.4269,-8.4779,0.3687,0.0759,0.2052,-0.0986
12253,-1.4006,-8.5784,0.3328,0.1314,0.1831,-0.1207
12261,-1.3767,-8.4970,0.4357,0.1865,0.1652,-0.1418
12269,-1.4246,-8.5712,0.3376,0.2427,0.1383,-0.1639
12277,-1.4269,-8.5808,0.3328,0.2926,0.1231,-0.1865
12285,-1.4102,-8.6287,0.3448,0.3475,0.0943,-0.2020
12294,-1.4293,-8.6622,0.3879,0.4010,0.0695,-0.2220
12301,-1.4365,-8.7029,0.2562,0.4498,0.0384,-0.2417
12309,-1.4988,-8.7388,0.2849,0.4922,0.0155,-0.2569
12317,-1.5514,-8.8107,0.2227,0.5433,-0.0165,-0.2766
12325,-1.4964,-8.8322,0.3184,0.5913,-0.0429,-0.2918
12334,-1.5227,-8.8945,0.2921,0.6376,-0.0685,-0.3078
12341,-1.5347,-8.9926,0.3376,0.6843,-0.0973,-0.3240
12349,-1.5874,-9.1267,0.2418,0.7298,-0.1268,-0.3421
12357,-1.5921,-9.1866,0.3089,0.7719,-0.1484,-0.3579
12365,-1.6017,-9.2751,0.2274,0.8122,-0.1732,-0.3749
12374,-1.6113,-9.3637,0.2203,0.8511,-0.1990,-0.3893
12382,-1.6424,-9.4571,0.2777,0.8929,-0.2249,-0.4072
12389,-1.6664,-9.5481,0.2418,0.9252,-0.2491,-0.4202
12397,-1.6927,-9.5960,0.1748,0.9675,-0.2686,-0.4389
12405,-1.6783,-9.7755,0.1915,1.0078,-0.2931,-0.4490
12413,-1.6927,-9.9024,0.2490,1.0408,-0.3144,-0.4620
12422,-1.7717,-10.0078,0.1963,1.0720,-0.3317,-0.4751
12429,-1.7645,-10.0796,0.2274,1.1042,-0.3549,-0.4863
12437,-1.7573,-10.2208,0.1365,1.1290,-0.3714,-0.4964
12445,-1.8723,-10.2735,0.1365,1.1564,-0.3949,-0.5068
12453,-1.8316,-10.4004,0.1006,1.1874,-0.4106,-0.5169
12462,-1.8818,-10.4507,0.1149,1.2020,-0.4325,-0.5247
12470,-1.9609,-10.5656,0.1030,1.2241,-0.4535,-0.5340
12477,-1.9800,-10.7452,0.0144,1.2409,-0.4751,-0.5385
12485,-1.9872,-10.8218,0.1077,1.2596,-0.4884,-0.5438
12493,-1.9609,-10.8673,0.0814,1.2748,-0.5033,-0.5481
12502,-1.9321,-10.9942,0.1484,1.2841,-0.5183,-0.5548
12510,-2.0231,-11.1067,0.0335,1.2963,-0.5361,-0.5612
12517,-1.9776,-11.1594,0.0192,1.3065,-0.5478,-0.5660
12525,-2.0016,-11.1905,0.0383,1.3139,-0.5572,-0.5721
12533,-2.0877,-11.4036,0.0239,1.3235,-0.5745,-0.5777
12541,-2.0399,-11.4682,0.0168,1.3347,-0.5809,-0.5841
12550,-2.0806,-11.5401,0.0144,1.3400,-0.5899,-0.5907
12558,-2.0734,-11.5927,0.0096,1.3478,-0.5926,-0.5961
12565,-2.1500,-11.6981,0.1341,1.3544,-0.6006,-0.6081
12573,-2.1237,-11.7412,0.0575,1.3683,-0.6107,-0.6129
12581,-2.0446,-11.8106,0.0599,1.3795,-0.6166,-0.6190
12590,-2.1069,-11.9016,-0.0024,1.3901,-0.6169,-0.6278
12598,-2.1404,-12.0141,0.0239,1.3968,-0.6241,-0.6403
12605,-2.1189,-12.0620,0.0958,1.4080,-0.6278,-0.6451
12613,-2.1907,-12.1218,-0.0024,1.4138,-0.6267,-0.6550
12621,-2.2051,-12.1937,0.0383,1.4282,-0.6243,-0.6622
12630,-2.2218,-12.2487,0.0000,1.4384,-0.6238,-0.6707
12638,-2.2697,-12.2918,0.0599,1.4504,-0.6211,-0.6781
12646,-2.2266,-12.3158,0.0407,1.4589,-0.6166,-0.6840
12653,-2.1787,-12.2990,0.0335,1.4722,-0.6129,-0.6931
12661,-2.2075,-12.3900,0.0239,1.4805,-0.6049,-0.6992
12669,-2.2577,-12.3948,0.0383,1.4917,-0.5985,-0.7048
12678,-2.2146,-12.4403,0.0766,1.5018,-0.5939,-0.7136
12686,-2.2625,-12.4522,-0.0192,1.5159,-0.5860,-0.7144
12693,-2.3080,-12.4044,0.0287,1.5212,-0.5761,-0.7213
12701,-2.2362,-12.4929,0.0000,1.5260,-0.5684,-0.7242
12709,-2.2553,-12.5241,0.0311,1.5343,-0.5580,-0.7258
12718,-2.2146,-12.4091,-0.0072,1.5354,-0.5489,-0.7264
12726,-2.2769,-12.5169,-0.0168,1.5343,-0.5345,-0.7248
12733,-2.2649,-12.4379,-0.0024,1.5332,-0.5228,-0.7272
12741,-2.2218,-12.4044,-0.0263,1.5351,-0.5121,-0.7253
12749,-2.1955,-12.3541,0.0479,1.5354,-0.4991,-0.7213
12758,-2.3152,-12.3613,-0.1269,1.5287,-0.4855,-0.7226
12766,-2.2769,-12.2942,-0.0622,1.5260,-0.4692,-0.7115
12774,-2.2003,-12.2439,-0.0192,1.5122,-0.4559,-0.7077
12781,-2.2649,-12.2631,-0.0335,1.5044,-0.4399,-0.6995
12789,-2.2194,-12.1937,-0.1006,1.4949,-0.4290,-0.6896
12797,-2.2242,-12.1482,-0.0431,1.4791,-0.4120,-0.6811
12806,-2.2984,-12.1099,-0.0838,1.4658,-0.3994,-0.6723
12814,-2.1979,-12.0548,-0.0192,1.4453,-0.3901,-0.6614
12821,-2.2865,-11.9159,-0.0934,1.4322,-0.3786,-0.6531
12829,-2.2194,-11.8752,-0.0144,1.4141,-0.3648,-0.6406
12837,-2.2673,-11.7890,-0.1748,1.3928,-0.3547,-0.6294
12846,-2.1572,-11.7100,0.0120,1.3736,-0.3421,-0.6163
12854,-2.1620,-11.6909,-0.0862,1.3536,-0.3280,-0.6033
12862,-2.2027,-11.6119,-0.0886,1.3360,-0.3144,-0.5918
12869,-2.1883,-11.4970,-0.1293,1.3107,-0.3110,-0.5801
12877,-2.1284,-11.3988,-0.1460,1.2905,-0.2966,-0.5689
12886,-2.1428,-11.2719,-0.0886,1.2638,-0.2971,-0.5505
12894,-2.0231,-11.2192,-0.0790,1.2425,-0.2904,-0.5433
12902,-2.0351,-11.1450,-0.1006,1.2223,-0.2819,-0.5324
12909,-2.0087,-11.0061,-0.0742,1.1951,-0.2811,-0.5183
12917,-2.0255,-10.8793,-0.1413,1.1735,-0.2761,-0.5065
12925,-2.0423,-10.8050,-0.0455,1.1556,-0.2731,-0.4948
12934,-1.9968,-10.7069,-0.1891,1.1325,-0.2771,-0.4810
12942,-1.9225,-10.6542,-0.0455,1.1111,-0.2694,-0.4687
12950,-1.9824,-10.5512,-0.0359,1.0850,-0.2729,-0.4570
12957,-1.9513,-10.4028,-0.0599,1.0605,-0.2707,-0.4434
12965,-2.0016,-10.3573,0.0144,1.0352,-0.2713,-0.4269
12974,-1.8771,-10.2280,-0.0814,1.0107,-0.2681,-0.4189
12982,-1.8603,-10.1275,-0.0335,0.9846,-0.2697,-0.4010
12990,-1.8579,-10.0485,-0.0455,0.9622,-0.2750,-0.3877
12997,-1.8986,-9.9527,-0.0263,0.9340,-0.2755,-0.3749
13005,-1.8603,-9.8306,-0.0575,0.9118,-0.2774,-0.3573
13014,-1.8794,-9.7229,-0.0958,0.8825,-0.2755,-0.3408
13022,-1.7933,-9.6247,-0.0192,0.8513,-0.2790,-0.3238
13030,-1.7597,-9.5768,0.0000,0.8244,-0.2790,-0.3070
13038,-1.7789,-9.4978,-0.0383,0.7962,-0.2803,-0.2891
13045,-1.7837,-9.3948,-0.1221,0.7655,-0.2814,-0.2761
13053,-1.7885,-9.3302,0.0144,0.7333,-0.2763,-0.2595
13062,-1.7358,-9.2416,-0.0168,0.6952,-0.2774,-0.2401
13070,-1.7909,-9.2416,-0.1030,0.6648,-0.2761,-0.2228
13078,-1.8411,-9.1099,-0.1053,0.6291,-0.2723,-0.2020
13085,-1.7430,-9.0237,-0.0527,0.5926,-0.2713,-0.1799
13093,-1.7238,-8.9280,-0.0958,0.5561,-0.2686,-0.1633
13102,-1.6640,-8.9088,-0.0311,0.5196,-0.2611,-0.1407
13110,-1.7286,-8.9567,-0.0982,0.4818,-0.2606,-0.1204
13118,-1.7286,-8.8418,-0.1676,0.4437,-0.2539,-0.0981
13126,-1.6688,-8.7053,0.0048,0.4056,-0.2457,-0.0775
13133,-1.6783,-8.7293,-0.1580,0.3619,-0.2372,-0.0544
13142,-1.6759,-8.7101,-0.0958,0.3230,-0.2270,-0.0349
13150,-1.6352,-8.5976,-0.2059,0.2793,-0.2124,-0.0104
13158,-1.6065,-8.6024,-0.1077,0.2398,-0.2041,0.0133
13166,-1.6975,-8.5449,-0.0670,0.1972,-0.1908,0.0352
13173,-1.6879,-8.5688,-0.0742,0.1508,-0.1751,0.0610
13181,-1.6592,-8.5114,-0.0383,0.1108,-0.1591,0.0847
13190,-1.6664,-8.5234,-0.1077,0.0709,-0.1439,0.1124
13198,-1.6879,-8.5497,-0.1030,0.0261,-0.1271,0.1380
13206,-1.6328,-8.4898,-0.1149,-0.0112,-0.1100,0.1604
13214,-1.6592,-8.5018,-0.1197,-0.0546,-0.0866,0.1839
13221,-1.5682,-8.5066,-0.1030,-0.0967,-0.0661,0.2084
13230,-1.6161,-8.5353,-0.0503,-0.1308,-0.0437,0.2278
13238,-1.5969,-8.5952,-0.0910,-0.1761,-0.0181,0.2529
13246,-1.5874,-8.5856,-0.1197,-0.2153,0.0037,0.2753
13254,-1.6903,-8.6024,-0.0766,-0.2571,0.0245,0.3027
13261,-1.6592,-8.7245,-0.0192,-0.2928,0.0541,0.3277
13270,-1.6855,-8.7293,-0.0670,-0.3325,0.0813,0.3483
13278,-1.6712,-8.7915,-0.0694,-0.3637,0.1116,0.3701
13286,-1.6712,-8.8107,-0.0838,-0.4037,0.1362,0.3949
13294,-1.6735,-8.8705,-0.0646,-0.4378,0.1649,0.4167
13301,-1.6376,-8.9376,-0.0311,-0.4719,0.1990,0.4327
13309,-1.6712,-9.0525,0.0024,-0.5049,0.2249,0.4522
13318,-1.6448,-9.1075,-0.0239,-0.5407,0.2561,0.4698
13326,-1.7334,-9.2033,0.0287,-0.5718,0.2838,0.4924
13334,-1.7430,-9.3039,0.0072,-0.6067,0.3107,0.5049
13342,-1.6664,-9.3470,-0.0263,-0.6379,0.3381,0.5207
13349,-1.6616,-9.4643,0.0742,-0.6672,0.3664,0.5364
13358,-1.7430,-9.5265,0.0168,-0.6923,0.3893,0.5486
13366,-1.7621,-9.5409,-0.0575,-0.7248,0.4170,0.5641
13374,-1.7765,-9.6678,0.0096,-0.7541,0.4418,0.5756
13382,-1.7095,-9.7659,0.0407,-0.7823,0.4666,0.5836
13389,-1.8316,-9.8809,0.0407,-0.8029,0.4831,0.5915
13398,-1.8076,-9.9479,0.1293,-0.8351,0.5060,0.5998
13406,-1.8292,-10.0102,0.0766,-0.8601,0.5252,0.6123
13414,-1.8028,-10.1131,0.0192,-0.8815,0.5444,0.6209
13422,-1.8124,-10.2352,0.0431,-0.9054,0.5590,0.6294
13430,-1.8890,-10.2376,0.1077,-0.9278,0.5753,0.6350
13437,-1.9010,-10.3860,0.1580,-0.9507,0.5897,0.6427
13446,-1.9154,-10.4698,0.1365,-0.9681,0.6035,0.6459
13454,-1.8842,-10.5872,0.1341,-0.9928,0.6102,0.6552
13462,-2.0039,-10.6303,0.1939,-1.0019,0.6246,0.6542
13470,-1.9585,-10.7332,0.1844,-1.0243,0.6328,0.6624
13477,-1.9154,-10.8194,0.1149,-1.0445,0.6448,0.6635
13486,-1.9393,-10.8601,0.2610,-1.0616,0.6574,0.6654
13494,-1.9920,-11.0229,0.2011,-1.0832,0.6643,0.6710
13502,-1.9992,-11.0971,0.1820,-1.1005,0.6712,0.6763
13510,-2.0039,-11.2049,0.2418,-1.1191,0.6720,0.6749
13518,-2.0279,-11.2863,0.1676,-1.1431,0.6765,0.6792
13526,-2.0830,-11.3892,0.2418,-1.1631,0.6816,0.6827
13534,-2.1524,-11.4563,0.1963,-1.1820,0.6856,0.6813
13542,-2.0830,-11.5664,0.2107,-1.2017,0.6909,0.6856
13550,-2.0901,-11.5903,0.1628,-1.2260,0.6923,0.6875
13558,-2.0949,-11.6119,0.2322,-1.2465,0.6947,0.6904
13565,-2.1261,-11.6909,0.2370,-1.2654,0.6917,0.6899
13574,-2.1452,-11.7819,0.2370,-1.2820,0.6845,0.6901
13582,-2.1476,-11.8393,0.2011,-1.3043,0.6789,0.6912
13590,-2.1404,-11.9183,0.3639,-1.3222,0.6723,0.6899
13598,-2.1739,-11.9183,0.2729,-1.3406,0.6582,0.6891
13606,-2.1332,-11.9734,0.2610,-1.3563,0.6467,0.6885
13614,-2.1691,-11.9973,0.1796,-1.3739,0.6366,0.6832
13622,-2.1787,-12.0764,0.2897,-1.3893,0.6251,0.6779
13630,-2.1284,-12.0740,0.2945,-1.4104,0.6110,0.6803
13638,-2.0853,-12.0835,0.2490,-1.4229,0.6003,0.6760
13646,-2.1620,-12.1554,0.2394,-1.4378,0.5812,0.6704
13654,-2.1404,-12.1889,0.2777,-1.4490,0.5668,0.6670
13662,-2.1644,-12.1961,0.3352,-1.4573,0.5476,0.6667
13670,-2.2338,-12.1865,0.3639,-1.4661,0.5305,0.6614
13678,-2.1907,-12.2056,0.3903,-1.4741,0.5111,0.6555
13686,-2.2194,-12.2320,0.3807,-1.4775,0.4938,0.6534
13694,-2.1955,-12.1386,0.3783,-1.4858,0.4759,0.6454
13702,-2.1045,-12.1290,0.3879,-1.4874,0.4522,0.6427
13710,-2.1691,-12.1362,0.3424,-1.4861,0.4386,0.6363
13718,-2.1308,-12.1697,0.3328,-1.4858,0.4173,0.6307
13726,-2.1189,-12.1171,0.3783,-1.4879,0.4005,0.6273
13734,-2.1308,-12.1123,0.3855,-1.4778,0.3832,0.6195
13742,-2.0925,-12.0620,0.3543,-1.4711,0.3637,0.6147
13750,-2.1476,-12.0213,0.3304,-1.4666,0.3469,0.6049
13758,-2.1237,-12.0189,0.4094,-1.4565,0.3325,0.5979
13766,-2.1045,-11.9279,0.3711,-1.4469,0.3184,0.5905
13774,-2.1332,-11.8657,0.3328,-1.4341,0.3000,0.5844
13783,-2.0518,-11.8537,0.3089,-1.4253,0.2915,0.5740
13790,-2.0590,-11.8369,0.3472,-1.4117,0.2801,0.5660
13798,-2.0255,-11.7148,0.3759,-1.4003,0.2753,0.5577
13806,-2.0830,-11.6334,0.3352,-1.3859,0.2694,0.5532
13814,-2.0973,-11.6119,0.3615,-1.3680,0.2601,0.5375
13822,-2.0087,-11.5209,0.3711,-1.3526,0.2542,0.5313
13830,-2.0375,-11.4060,0.3089,-1.3376,0.2465,0.5271
13838,-2.0327,-11.3725,0.3807,-1.3203,0.2398,0.5156
13846,-1.9489,-11.3270,0.3519,-1.3041,0.2353,0.5116
13854,-1.9992,-11.2432,0.3543,-1.2870,0.2326,0.4988
13862,-1.8555,-11.1402,0.3328,-1.2700,0.2278,0.4946
13870,-1.9680,-11.0828,0.3472,-1.2502,0.2254,0.4810
13878,-1.8962,-11.0325,0.2849,-1.2305,0.2236,0.4714
13886,-1.9106,-10.8816,0.3184,-1.2108,0.2228,0.4610
13894,-1.8124,-10.8074,0.3496,-1.1884,0.2276,0.4522
13902,-1.7933,-10.6853,0.3496,-1.1716,0.2305,0.4405
13911,-1.8387,-10.6207,0.3448,-1.1498,0.2326,0.4359
13918,-1.8052,-10.4435,0.3304,-1.1247,0.2350,0.4202
13926,-1.8340,-10.4291,0.3256,-1.1032,0.2398,0.4074
13934,-1.7526,-10.3669,0.3089,-1.0778,0.2441,0.3968
13942,-1.7933,-10.2424,0.3663,-1.0557,0.2491,0.3810
13950,-1.7310,-10.1849,0.2825,-1.0320,0.2510,0.3685
13958,-1.7717,-10.1131,0.2322,-1.0059,0.2582,0.3560
13966,-1.7214,-9.9862,0.3591,-0.9737,0.2635,0.3408
13974,-1.7430,-9.9288,0.2586,-0.9451,0.2702,0.3288
13982,-1.6496,-9.8952,0.2682,-0.9156,0.2753,0.3155
13990,-1.6113,-9.8043,0.3041,-0.8839,0.2814,0.2979
13999,-1.7023,-9.7013,0.3328,-0.8482,0.2848,0.2838
14006,-1.6688,-9.5960,0.3711,-0.8148,0.2928,0.2683
14014,-1.6185,-9.5577,0.2969,-0.7823,0.2960,0.2513
14022,-1.6257,-9.5457,0.3017,-0.7445,0.2952,0.2364
14030,-1.5730,-9.4523,0.2921,-0.7061,0.2982,0.2196
14039,-1.5538,-9.3470,0.3807,-0.6678,0.3006,0.2001
14046,-1.5754,-9.2775,0.2777,-0.6262,0.3056,0.1812
14054,-1.5562,-9.2608,0.3160,-0.5852,0.3019,0.1583
14062,-1.5203,-9.1578,0.3807,-0.5420,0.3054,0.1455
14070,-1.4916,-9.0573,0.2945,-0.4988,0.3046,0.1242
14078,-1.4796,-9.0261,0.3855,-0.4538,0.2974,0.1047
14087,-1.5682,-9.0190,0.3184,-0.4109,0.2982,0.0895
14094,-1.5419,-9.0142,0.4190,-0.3669,0.2976,0.0695
14102,-1.4629,-8.9016,0.3663,-0.3192,0.2894,0.0501
14110,-1.4413,-8.8945,0.3950,-0.2763,0.2819,0.0333
14118,-1.4700,-8.8226,0.3950,-0.2254,0.2755,0.0112
14127,-1.5012,-8.8202,0.2873,-0.1812,0.2681,-0.0040
14134,-1.4605,-8.8322,0.4262,-0.1340,0.2537,-0.0269
14142,-1.4030,-8.7508,0.3232,-0.0855,0.2446,-0.0405
14150,-1.4844,-8.7795,0.3519,-0.0418,0.2292,-0.0621
14158,-1.4820,-8.7436,0.3160,0.0056,0.2164,-0.0762
14167,-1.4988,-8.8011,0.3639,0.0541,0.2044,-0.0975
14175,-1.4389,-8.7340,0.2825,0.0991,0.1839,-0.1186
14182,-1.5012,-8.8921,0.2945,0.1471,0.1660,-0.1375
14190,-1.4605,-8.8490,0.4166,0.1937,0.1423,-0.1511
14198,-1.5155,-8.8418,0.4118,0.2356,0.1207,-0.1684
14206,-1.4413,-8.8681,0.2969,0.2771,0.0978,-0.1860
14215,-1.5419,-8.8801,0.3615,0.3235,0.0754,-0.1974
14222,-1.6161,-8.9376,0.3687,0.3664,0.0496,-0.2124
14230,-1.5323,-8.9471,0.3567,0.4064,0.0253,-0.2292
14238,-1.5012,-8.9112,0.3328,0.4501,-0.0061,-0.2433
14246,-1.5778,-9.1004,0.3448,0.4927,-0.0277,-0.2590
14255,-1.5754,-9.1435,0.2945,0.5297,-0.0573,-0.2697
14263,-1.5754,-9.1626,0.3400,0.5692,-0.0879,-0.2864
14270,-1.5993,-9.2105,0.2801,0.6078,-0.1124,-0.3022
14278,-1.5826,-9.3661,0.2610,0.6443,-0.1410,-0.3198
14286,-1.6209,-9.3781,0.3089,0.6811,-0.1689,-0.3349
14295,-1.6209,-9.4906,0.3352,0.7149,-0.1948,-0.3472
14303,-1.6281,-9.5265,0.2370,0.7450,-0.2241,-0.3589
14310,-1.6520,-9.6343,0.2442,0.7781,-0.2475,-0.3757
14318,-1.6855,-9.7229,0.1413,0.8130,-0.2681,-0.3901
14326,-1.7286,-9.7205,0.1820,0.8444,-0.2912,-0.3997
14334,-1.7190,-9.8282,0.2251,0.8737,-0.3112,-0.4114
14343,-1.7406,-9.9455,0.2921,0.9030,-0.3363,-0.4173
14351,-1.7406,-9.9718,0.2035,0.9337,-0.3589,-0.4285
14358,-1.7262,-10.0652,0.1628,0.9601,-0.3813,-0.4367
14366,-1.8531,-10.1275,0.1293,0.9926,-0.3989,-0.4455
14374,-1.8004,-10.2352,0.1820,1.0128,-0.4194,-0.4554
14383,-1.8579,-10.2568,0.1030,1.0365,-0.4391,-0.4620
14391,-1.8651,-10.3573,0.0982,1.0536,-0.4549,-0.4746
14398,-1.8794,-10.4651,0.1676,1.0712,-0.4690,-0.4807
14406,-1.8627,-10.5441,0.1125,1.0912,-0.4815,-0.4863
14414,-1.9249,-10.6374,0.1365,1.1069,-0.4948,-0.4932
14423,-1.9489,-10.6326,0.0263,1.1237,-0.5044,-0.4986
14431,-1.9441,-10.7955,0.1197,1.1410,-0.5164,-0.5068
14439,-1.9273,-10.8505,0.0790,1.1519,-0.5223,-0.5135
14446,-1.9441,-10.9607,0.0599,1.1700,-0.5327,-0.5145
14454,-1.9848,-10.9894,0.0934,1.1783,-0.5383,-0.5225
14462,-2.0255,-11.1019,0.0862,1.1935,-0.5399,-0.5343
14471,-2.0375,-11.1618,0.0120,1.2039,-0.5484,-0.5367
14479,-2.0279,-11.2264,0.0383,1.2148,-0.5553,-0.5433
14486,-2.0734,-11.3054,0.0575,1.2273,-0.5532,-0.5476
14494,-2.0255,-11.3461,0.0814,1.2345,-0.5574,-0.5529
14502,-2.0734,-11.4730,-0.0479,1.2462,-0.5561,-0.5598
14511,-2.0638,-11.5233,0.0838,1.2577,-0.5516,-0.5670
14519,-2.0231,-11.5568,0.0215,1.2638,-0.5518,-0.5737
14527,-2.0973,-11.5616,0.0958,1.2713,-0.5534,-0.5758
14534,-2.1021,-11.6526,0.0503,1.2812,-0.5454,-0.5865
14542,-2.0997,-11.6837,0.0311,1.2873,-0.5436,-0.5897
14551,-2.0853,-11.7029,0.0503,1.2942,-0.5380,-0.5982
14559,-2.0566,-11.7268,0.0192,1.3054,-0.5316,-0.6043
14567,-2.1356,-11.8489,-0.0311,1.3118,-0.5228,-0.6113
14574,-2.1284,-11.8321,0.0407,1.3179,-0.5191,-0.6155
14582,-2.0853,-11.7962,-0.0072,1.3259,-0.5156,-0.6193
14590,-2.1165,-11.8992,0.0575,1.3350,-0.5068,-0.6238
14599,-2.1452,-11.8010,0.0766,1.3416,-0.5004,-0.6270
14607,-2.1668,-11.8896,0.0455,1.3491,-0.4890,-0.6243
14614,-2.0925,-11.8848,0.1149,1.3563,-0.4831,-0.6326
14622,-2.1787,-11.9135,0.0718,1.3630,-0.4724,-0.6318
14630,-2.2146,-11.9064,0.0646,1.3659,-0.4650,-0.6342
14639,-2.1596,-11.9112,0.0096,1.3696,-0.4543,-0.6323
14647,-2.1668,-11.8274,-0.0192,1.3696,-0.4439,-0.6302
14655,-2.1284,-11.9327,0.0431,1.3731,-0.4346,-0.6297
14662,-2.2098,-11.8585,-0.0096,1.3763,-0.4271,-0.6275
14670,-2.2266,-11.9088,-0.0096,1.3712,-0.4120,-0.6217
14679,-2.2218,-11.8034,0.0048,1.3670,-0.3973,-0.6209
14687,-2.1787,-11.7962,-0.0886,1.3667,-0.3893,-0.6131
14695,-2.2051,-11.7938,-0.0599,1.3608,-0.3738,-0.6099
14702,-2.1979,-11.7531,-0.0407,1.3542,-0.3669,-0.6014
14710,-2.1787,-11.7220,-0.0934,1.3435,-0.3573,-0.5934
14718,-2.1835,-11.6526,0.0192,1.3312,-0.3504,-0.5833
14727,-2.2314,-11.5831,-0.1030,1.3214,-0.3381,-0.5756
14735,-2.1548,-11.5712,-0.0599,1.3086,-0.3248,-0.5665
14743,-2.1380,-11.4874,-0.0096,1.2971,-0.3136,-0.5540
14750,-2.1237,-11.4802,-0.0120,1.2849,-0.3059,-0.5481
14758,-2.1691,-11.3605,-0.0838,1.2630,-0.2950,-0.5356
14767,-2.0901,-11.2671,-0.0503,1.2510,-0.2840,-0.5271
14775,-2.1165,-11.2432,-0.0072,1.2345,-0.2769,-0.5156
14783,-2.0255,-11.2432,-0.0120,1.2180,-0.2686,-0.5041
14790,-2.1069,-11.1546,-0.0838,1.1996,-0.2614,-0.4975
14798,-2.0614,-11.0684,-0.1748,1.1834,-0.2587,-0.4807
14807,-2.0997,-11.0133,0.0383,1.1647,-0.2539,-0.4722
14815,-2.0159,-10.9367,-0.0838,1.1434,-0.2441,-0.4607
14823,-2.0111,-10.8098,-0.1532,1.1247,-0.2377,-0.4506
14831,-2.0111,-10.8026,-0.1389,1.1024,-0.2390,-0.4370
14838,-1.9154,-10.6781,-0.0383,1.0880,-0.2358,-0.4269
14846,-2.0063,-10.5728,-0.1149,1.0616,-0.2302,-0.4135
14855,-1.9465,-10.5129,-0.0742,1.0368,-0.2318,-0.4005
14863,-1.9632,-10.4507,0.0168,1.0120,-0.2297,-0.3898
14871,-1.9441,-10.3334,-0.0718,0.9939,-0.2310,-0.3781
14878,-1.8890,-10.3358,-0.0766,0.9731,-0.2332,-0.3632
14886,-1.8842,-10.1921,-0.0215,0.9462,-0.2342,-0.3547
14895,-1.8890,-10.1083,0.0431,0.9188,-0.2380,-0.3397
14903,-1.8771,-10.0485,0.0072,0.8961,-0.2372,-0.3283
14911,-1.8340,-9.9766,-0.0910,0.8671,-0.2388,-0.3166
14919,-1.8364,-9.8330,-0.0407,0.8391,-0.2454,-0.3019
14926,-1.8364,-9.8378,0.0096,0.8132,-0.2486,-0.2891
14935,-1.8076,-9.7827,-0.0455,0.7834,-0.2510,-0.2691
14943,-1.7765,-9.6486,0.0263,0.7586,-0.2558,-0.2585
14951,-1.8100,-9.6343,-0.0503,0.7280,-0.2593,-0.2435
14959,-1.8531,-9.5768,-0.0814,0.7016,-0.2593,-0.2273
14966,-1.7957,-9.5457,0.0287,0.6739,-0.2617,-0.2140
14974,-1.7526,-9.4547,-0.0335,0.6464,-0.2633,-0.1958
14983,-1.7549,-9.4044,-0.0479,0.6142,-0.2646,-0.1799
14991,-1.7885,-9.2823,-0.0287,0.5798,-0.2627,-0.1617
14999,-1.7813,-9.2440,-0.1101,0.5476,-0.2619,-0.1482
15007,-1.7142,-9.1722,-0.1053,0.5145,-0.2553,-0.1244
15014,-1.7813,-9.2057,-0.0838,0.4783,-0.2558,-0.1095
15023,-1.7358,-9.0477,-0.0766,0.4509,-0.2507,-0.0895
15031,-1.7526,-8.9759,0.0096,0.4125,-0.2537,-0.0693
15039,-1.6161,-8.9783,-0.0431,0.3797,-0.2475,-0.0514
15047,-1.7430,-8.9950,-0.1030,0.3456,-0.2356,-0.0304
15054,-1.6903,-8.9423,-0.0958,0.3104,-0.2321,-0.0115
15063,-1.6783,-8.8035,-0.0311,0.2774,-0.2257,0.0075
15071,-1.6640,-8.8969,-0.0670,0.2425,-0.2142,0.0226
15079,-1.6664,-8.8562,-0.0311,0.2044,-0.1990,0.0413
15087,-1.6735,-8.8035,-0.1101,0.1687,-0.1873,0.0637
15095,-1.6688,-8.7963,-0.1125,0.1335,-0.1788,0.0839
15102,-1.7119,-8.7508,-0.1030,0.0930,-0.1641,0.1042
15111,-1.6735,-8.7676,-0.1437,0.0642,-0.1444,0.1218
15119,-1.6783,-8.7843,-0.0455,0.0272,-0.1239,0.1463
15127,-1.6712,-8.7364,-0.0622,-0.0088,-0.1098,0.1681
15135,-1.6592,-8.7508,-0.1460,-0.0440,-0.0861,0.1847
15142,-1.6927,-8.8466,-0.0479,-0.0778,-0.0655,0.2057
15151,-1.7286,-8.8490,-0.0718,-0.1122,-0.0400,0.2217
15159,-1.6424,-8.8394,-0.0527,-0.1527,-0.0165,0.2417
15167,-1.6400,-8.8490,-0.0910,-0.1865,0.0083,0.2630
15175,-1.6472,-8.8418,-0.1125,-0.2190,0.0333,0.2846
15183,-1.7119,-8.9711,-0.0766,-0.2537,0.0616,0.3072
15191,-1.6688,-8.9735,-0.1245,-0.2904,0.0906,0.3256
15199,-1.6688,-9.0668,-0.0407,-0.3227,0.1135,0.3448
15207,-1.7166,-9.0429,-0.0024,-0.3539,0.1434,0.3643
15215,-1.7382,-9.1147,0.0383,-0.3872,0.1692,0.3805
15223,-1.6688,-9.1554,0.0239,-0.4170,0.1982,0.3912
15230,-1.7454,-9.1985,0.0168,-0.4506,0.2236,0.4053
15239,-1.7813,-9.2464,-0.1030,-0.4812,0.2462,0.4279
15247,-1.7478,-9.3230,-0.0622,-0.5156,0.2750,0.4391
15255,-1.7502,-9.3278,-0.0886,-0.5446,0.2923,0.4541
15263,-1.7717,-9.4475,0.0287,-0.5726,0.3238,0.4650
15271,-1.7741,-9.5146,0.0263,-0.5987,0.3464,0.4802
15279,-1.7957,-9.5481,0.0120,-0.6251,0.3651,0.4959
15287,-1.7717,-9.6774,0.0072,-0.6510,0.3874,0.5044
15295,-1.7861,-9.7037,0.0096,-0.6710,0.4088,0.5167
15303,-1.7693,-9.7636,0.0072,-0.6973,0.4266,0.5247
15311,-1.8004,-9.8474,0.0359,-0.7194,0.4479,0.5305
15319,-1.7909,-9.9192,0.0934,-0.7466,0.4626,0.5412
15327,-1.7980,-10.0269,0.0862,-0.7647,0.4810,0.5457
15335,-1.8268,-10.1035,0.1101,-0.7871,0.5004,0.5550
15343,-1.8507,-10.1347,0.0670,-0.8130,0.5113,0.5593
15351,-1.7765,-10.2328,0.0479,-0.8298,0.5276,0.5649
15358,-1.8938,-10.3166,0.1437,-0.8521,0.5377,0.5710
15367,-1.9297,-10.3980,0.0910,-0.8724,0.5494,0.5772
15375,-1.8842,-10.4674,0.1987,-0.8897,0.5601,0.5852
15383,-1.8531,-10.5752,0.1197,-0.9054,0.5673,0.5849
15391,-1.9537,-10.5704,0.1006,-0.9254,0.5769,0.5894
15399,-1.9848,-10.6997,0.1365,-0.9454,0.5841,0.5918
15407,-1.9321,-10.7212,0.1484,-0.9582,0.5923,0.5961
15415,-1.9513,-10.7978,0.1077,-0.9782,0.5995,0.5987
15423,-1.9465,-10.8649,0.1604,-1.0043,0.6075,0.6038
15431,-2.0159,-10.9607,0.0910,-1.0179,0.6145,0.6075
15439,-1.9752,-11.0061,0.1963,-1.0339,0.6137,0.6089
15447,-1.9585,-11.0181,0.1796,-1.0515,0.6139,0.6139
15455,-2.0231,-11.0684,0.2394,-1.0685,0.6177,0.6174
15463,-2.0949,-11.1570,0.2107,-1.0829,0.6110,0.6131
15471,-2.0303,-11.2240,0.1987,-1.1037,0.6137,0.6163
15479,-2.0039,-11.3006,0.1365,-1.1229,0.6110,0.6155
15488,-1.9968,-11.3030,0.1772,-1.1399,0.6051,0.6150
15495,-2.0782,-11.3772,0.2945,-1.1572,0.5974,0.6121
15503,-2.0782,-11.4108,0.3089,-1.1802,0.5929,0.6129
15511,-2.1093,-11.4634,0.2538,-1.1964,0.5854,0.6091
15519,-2.1093,-11.5113,0.2298,-1.2140,0.5753,0.6075
15527,-2.0758,-11.4826,0.2035,-1.2308,0.5678,0.6097
15535,-2.1189,-11.5520,0.1676,-1.2441,0.5596,0.6070
15543,-2.1668,-11.5903,0.3256,-1.2601,0.5473,0.6067
15551,-2.0710,-11.6095,0.2849,-1.2686,0.5335,0.6086
15559,-2.1213,-11.6215,0.2801,-1.2798,0.5156,0.6001
15567,-2.0806,-11.6861,0.3089,-1.2945,0.5057,0.5993
15576,-2.0782,-11.6717,0.2897,-1.3030,0.4823,0.5937
15583,-2.0949,-11.7364,0.3256,-1.3102,0.4682,0.5918
15591,-2.0973,-11.7196,0.2873,-1.3211,0.4519,0.5905
15599,-2.1117,-11.6765,0.2753,-1.3280,0.4362,0.5825
15607,-2.1069,-11.6741,0.2203,-1.3299,0.4199,0.5782
15616,-2.0901,-11.7124,0.2993,-1.3350,0.4018,0.5748
15623,-2.1165,-11.6765,0.2921,-1.3366,0.3853,0.5700
15631,-2.0830,-11.6598,0.2945,-1.3355,0.3675,0.5657
15639,-2.1069,-11.6215,0.3448,-1.3363,0.3531,0.5585
15647,-2.0016,-11.6478,0.2251,-1.3299,0.3355,0.5526
15655,-2.0159,-11.6454,0.2825,-1.3275,0.3230,0.5486
15664,-2.0351,-11.6191,0.3017,-1.3238,0.3070,0.5404
15671,-2.0111,-11.5831,0.3017,-1.3118,0.2955,0.5321
15679,-2.0207,-11.5424,0.3879,-1.3081,0.2798,0.5292
15687,-1.9968,-11.4754,0.3543,-1.2971,0.2673,0.5225
15695,-2.0423,-11.4994,0.2993,-1.2875,0.2569,0.5151
15704,-2.0758,-11.3222,0.2945,-1.2785,0.2430,0.5079
15711,-1.9537,-11.2599,0.3232,-1.2654,0.2414,0.5017
15719,-2.0087,-11.3246,0.3950,-1.2550,0.2326,0.4932
15727,-2.0016,-11.2432,0.2131,-1.2375,0.2244,0.4863
15735,-1.9273,-11.1977,0.3089,-1.2220,0.2230,0.4772
15744,-1.9010,-11.1354,0.2658,-1.2084,0.2148,0.4690
15752,-1.9680,-11.0923,0.3160,-1.1948,0.2145,0.4610
15759,-1.8962,-11.0061,0.3256,-1.1740,0.2076,0.4514
15767,-1.9106,-10.9295,0.3519,-1.1594,0.2065,0.4453
15775,-1.9106,-10.9200,0.2993,-1.1447,0.2070,0.4343
15783,-1.9393,-10.8098,0.2179,-1.1221,0.2006,0.4250
15792,-1.9393,-10.7021,0.3112,-1.1069,0.1998,0.4167
15799,-1.8771,-10.7188,0.3136,-1.0861,0.2009,0.4077
15807,-1.8340,-10.5896,0.3496,-1.0690,0.2049,0.3965
15815,-1.7885,-10.5369,0.2610,-1.0560,0.2070,0.3882
15823,-1.8148,-10.5417,0.3160,-1.0331,0.2049,0.3762
15832,-1.7765,-10.4483,0.3472,-1.0142,0.2081,0.3693
15840,-1.7765,-10.4028,0.3065,-0.9931,0.2156,0.3573
15847,-1.7478,-10.3406,0.3304,-0.9713,0.2196,0.3488
15855,-1.7933,-10.2232,0.2849,-0.9499,0.2206,0.3349
15863,-1.7382,-10.1394,0.2466,-0.9265,0.2294,0.3227
15872,-1.6855,-10.1155,0.2945,-0.9022,0.2340,0.3104
15880,-1.7693,-10.0437,0.3017,-0.8777,0.2374,0.2971
15887,-1.7262,-9.9431,0.2322,-0.8492,0.2467,0.2848
15895,-1.6688,-9.8354,0.3376,-0.8215,0.2510,0.2665
15903,-1.6448,-9.7899,0.2466,-0.7983,0.2534,0.2561
15911,-1.6855,-9.7971,0.3160,-0.7669,0.2595,0.2385
15920,-1.7095,-9.7276,0.2322,-0.7352,0.2617,0.2268
15928,-1.6735,-9.6223,0.3328,-0.7061,0.2702,0.2108
15935,-1.6424,-9.5337,0.2490,-0.6731,0.2707,0.1945
15943,-1.6472,-9.4882,0.3903,-0.6376,0.2755,0.1823
15951,-1.5802,-9.4236,0.3879,-0.6019,0.2817,0.1644
15960,-1.5490,-9.4020,0.3687,-0.5686,0.2795,0.1535
15968,-1.6137,-9.3637,0.3065,-0.5313,0.2832,0.1351
15975,-1.5969,-9.2680,0.3304,-0.4962,0.2856,0.1207
15983,-1.6065,-9.2871,0.3424,-0.4586,0.2822,0.1026
15991,-1.5155,-9.1889,0.3879,-0.4167,0.2766,0.0863
16000,-1.5897,-9.1147,0.3567,-0.3805,0.2737,0.0706
16008,-1.5778,-9.1099,0.3519,-0.3403,0.2707,0.0544
16016,-1.5371,-9.1123,0.2945,-0.2998,0.2683,0.0378
16023,-1.5682,-9.1267,0.3926,-0.2603,0.2617,0.0187
16031,-1.5251,-9.0237,0.4262,-0.2158,0.2558,0.0021
16039,-1.5347,-9.0860,0.2538,-0.1724,0.2462,-0.0115
16048,-1.5347,-9.1028,0.3160,-0.1343,0.2382,-0.0309
16056,-1.5658,-9.0453,0.3256,-0.0927,0.2302,-0.0453
16063,-1.4820,-9.0214,0.3017,-0.0520,0.2169,-0.0608
16071,-1.5299,-9.0309,0.3112,-0.0093,0.2036,-0.0794
16079,-1.5826,-8.9902,0.3017,0.0338,0.1865,-0.0949
16088,-1.5323,-8.9615,0.4549,0.0730,0.1705,-0.1106
16096,-1.5012,-9.0237,0.3160,0.1095,0.1524,-0.1260
16103,-1.5610,-9.0764,0.2945,0.1522,0.1271,-0.1415
16111,-1.4964,-9.0549,0.3615,0.1911,0.1058,-0.1545
16119,-1.5323,-9.1219,0.3687,0.2302,0.0858,-0.1735
16128,-1.5323,-9.1387,0.3903,0.2662,0.0634,-0.1863
16136,-1.5945,-9.1315,0.2969,0.3040,0.0434,-0.2009
16144,-1.5467,-9.2057,0.2179,0.3357,0.0131,-0.2124
16151,-1.5131,-9.2320,0.2777,0.3701,-0.0125,-0.2278
16159,-1.5514,-9.2009,0.2251,0.4069,-0.0357,-0.2390
16167,-1.5897,-9.1889,0.2849,0.4397,-0.0618,-0.2475
16176,-1.5826,-9.3039,0.2801,0.4740,-0.0834,-0.2625
16184,-1.5802,-9.3087,0.2969,0.5092,-0.1085,-0.2755
16191,-1.5706,-9.3398,0.2514,0.5438,-0.1282,-0.2891
16199,-1.6496,-9.4403,0.2586,0.5740,-0.1519,-0.3035
16207,-1.7214,-9.5146,0.2753,0.6059,-0.1727,-0.3136
16216,-1.6520,-9.5265,0.2418,0.6339,-0.1929,-0.3259
16224,-1.6544,-9.5960,0.2155,0.6699,-0.2153,-0.3347
16232,-1.7286,-9.7109,0.1891,0.6968,-0.2348,-0.3483
16239,-1.7214,-9.7755,0.1963,0.7301,-0.2513,-0.3581
16247,-1.7454,-9.7683,0.2394,0.7525,-0.2731,-0.3704
16256,-1.7478,-9.8521,0.1772,0.7807,-0.2896,-0.3789
16264,-1.7645,-9.9240,0.1772,0.8047,-0.3051,-0.3890
16272,-1.7669,-9.9240,0.1460,0.8372,-0.3222,-0.3960
16279,-1.7789,-10.0652,0.0910,0.8561,-0.3395,-0.4061
16287,-1.8004,-10.0748,0.1125,0.8809,-0.3584,-0.4088
16295,-1.8268,-10.2376,0.0670,0.9041,-0.3688,-0.4165
16304,-1.7885,-10.2807,0.0862,0.9252,-0.3792,-0.4242
16312,-1.8268,-10.2639,0.1293,0.9507,-0.3901,-0.4317
16320,-1.8771,-10.4076,0.1580,0.9595,-0.4010,-0.4359
16327,-1.8794,-10.5010,0.1676,0.9819,-0.4093,-0.4407
16335,-1.8818,-10.5153,0.1269,0.9934,-0.4215,-0.4477
16344,-1.9297,-10.5680,0.1772,1.0118,-0.4303,-0.4565
16352,-1.8507,-10.6422,0.1413,1.0272,-0.4421,-0.4594
16360,-1.9273,-10.6997,0.1125,1.0411,-0.4487,-0.4652
16367,-1.9345,-10.7260,0.0958,1.0512,-0.4578,-0.4719
16375,-1.8866,-10.8553,-0.0120,1.0648,-0.4623,-0.4724
16384,-1.9393,-10.8122,0.0072,1.0730,-0.4642,-0.4810
16392,-2.0183,-10.9583,0.0215,1.0877,-0.4743,-0.4874
16400,-1.9585,-10.9439,0.0790,1.1021,-0.4714,-0.4916
16408,-2.0039,-11.0612,0.0814,1.1088,-0.4735,-0.4943
16415,-2.0039,-11.1330,0.2059,1.1189,-0.4772,-0.4999
16423,-2.0255,-11.1091,0.0407,1.1301,-0.4778,-0.5063
16432,-1.9968,-11.1378,0.0144,1.1391,-0.4746,-0.5079
16440,-2.0255,-11.2839,-0.0287,1.1423,-0.4754,-0.5143
16448,-2.0542,-11.2120,-0.0479,1.1506,-0.4722,-0.5199
16455,-1.9896,-11.2719,-0.0120,1.1562,-0.4714,-0.5217
16463,-2.1189,-11.3318,0.1532,1.1658,-0.4655,-0.5220
16472,-2.0375,-11.3533,0.0479,1.1700,-0.4658,-0.5273
16480,-2.0087,-11.3629,-0.0144,1.1791,-0.4620,-0.5303
16488,-2.0806,-11.3653,0.0072,1.1876,-0.4533,-0.5353
16496,-2.0686,-11.3892,0.0766,1.1951,-0.4479,-0.5412
16503,-2.0494,-11.4299,0.0024,1.1983,-0.4391,-0.5425
16512,-2.0997,-11.4179,0.0455,1.2076,-0.4351,-0.5489
16520,-2.0901,-11.4419,0.0551,1.2156,-0.4271,-0.5489
16528,-2.0542,-11.4850,0.0527,1.2236,-0.4234,-0.5502
16536,-2.0734,-11.4395,0.0934,1.2265,-0.4120,-0.5460
16543,-2.0877,-11.4706,0.0024,1.2316,-0.4056,-0.5497
16551,-2.1284,-11.5185,0.0742,1.2393,-0.4002,-0.5470
16560,-2.1787,-11.5401,0.0694,1.2404,-0.3906,-0.5478
16568,-2.0853,-11.5520,0.0000,1.2425,-0.3784,-0.5457
16576,-2.1165,-11.4850,-0.0287,1.2406,-0.3696,-0.5444
16584,-2.1668,-11.4443,-0.0120,1.2438,-0.3589,-0.5404
16591,-2.0542,-11.4299,-0.0479,1.2406,-0.3469,-0.5367
16600,-2.0638,-11.3677,0.0048,1.2385,-0.3384,-0.5351
16608,-2.0446,-11.3749,0.0024,1.2316,-0.3283,-0.5265
16616,-2.1045,-11.3485,-0.0670,1.2252,-0.3219,-0.5196
16624,-2.1021,-11.3030,-0.0383,1.2129,-0.3110,-0.5121
16631,-2.0782,-11.2815,0.0096,1.2028,-0.3086,-0.5044
16640,-2.0542,-11.2120,0.0383,1.1922,-0.3000,-0.4978
16648,-2.0399,-11.2025,-0.0287,1.1812,-0.2982,-0.4879
16656,-2.0734,-11.1666,-0.0838,1.1778,-0.2878,-0.4759
16664,-2.0423,-11.1187,-0.0599,1.1610,-0.2819,-0.4679
16672,-2.0087,-11.0540,-0.0311,1.1522,-0.2787,-0.4591
16679,-2.0375,-11.0421,-0.0335,1.1394,-0.2710,-0.4493
16688,-2.0566,-10.9798,-0.0048,1.1231,-0.2670,-0.4378
16696,-2.0231,-10.9032,-0.0575,1.1058,-0.2627,-0.4279
16704,-2.0590,-10.8553,-0.0766,1.0912,-0.2579,-0.4181
16712,-1.9848,-10.8290,-0.0575,1.0738,-0.2585,-0.4082
16719,-2.0255,-10.7236,-0.0862,1.0557,-0.2582,-0.4002
16728,-2.0087,-10.6949,0.0000,1.0400,-0.2465,-0.3896
16736,-1.9896,-10.6422,-0.1053,1.0190,-0.2475,-0.3752
16744,-1.9249,-10.5800,0.0239,1.0003,-0.2507,-0.3672
16752,-1.9800,-10.5273,-0.0311,0.9763,-0.2454,-0.3576
16759,-1.8842,-10.4387,-0.0910,0.9598,-0.2425,-0.3496
16768,-1.9345,-10.4315,-0.0670,0.9345,-0.2393,-0.3371
16776,-1.9489,-10.3094,-0.0694,0.9142,-0.2377,-0.3264
16784,-1.8387,-10.2615,-0.1221,0.8918,-0.2398,-0.3158
16792,-1.8914,-10.2280,-0.0790,0.8697,-0.2401,-0.3046
16800,-1.9249,-10.1083,0.0551,0.8463,-0.2385,-0.2896
16807,-1.8986,-10.0748,-0.0239,0.8234,-0.2382,-0.2761
16816,-1.8316,-10.0173,-0.0263,0.8042,-0.2403,-0.2662
16824,-1.8268,-9.9862,0.0168,0.7821,-0.2398,-0.2566
16832,-1.8435,-9.8881,-0.0958,0.7568,-0.2393,-0.2449
16840,-1.8292,-9.8545,-0.0359,0.7354,-0.2345,-0.2329
16847,-1.8340,-9.8066,-0.0072,0.7101,-0.2350,-0.2198
16856,-1.8028,-9.7061,-0.0790,0.6832,-0.2305,-0.2089
16864,-1.8411,-9.6582,-0.0024,0.6584,-0.2302,-0.1969
16872,-1.8172,-9.6750,-0.0886,0.6328,-0.2260,-0.1860
16880,-1.7813,-9.5217,-0.0048,0.6041,-0.2233,-0.1697
16888,-1.7382,-9.4308,-0.0335,0.5756,-0.2222,-0.1527
16896,-1.8076,-9.4643,0.0455,0.5545,-0.2185,-0.1391
16904,-1.7669,-9.3901,-0.0407,0.5297,-0.2180,-0.1212
16912,-1.7789,-9.3278,-0.0168,0.5025,-0.2113,-0.1100
16920,-1.7573,-9.3134,-0.0072,0.4751,-0.2057,-0.0933
16928,-1.7909,-9.2392,-0.0838,0.4487,-0.2054,-0.0783
16935,-1.7885,-9.2105,-0.0479,0.4202,-0.1974,-0.0618
16944,-1.7214,-9.2273,-0.0622,0.3869,-0.1876,-0.0442
16952,-1.7334,-9.1530,-0.0838,0.3608,-0.1849,-0.0282
16960,-1.6664,-9.1339,-0.0072,0.3254,-0.1748,-0.0120
16968,-1.6831,-9.0932,-0.0120,0.2926,-0.1713,0.0048
16976,-1.7286,-9.0525,-0.0407,0.2651,-0.1607,0.0240
16984,-1.6759,-9.0429,-0.0239,0.2324,-0.1532,0.0432
16992,-1.6927,-9.0501,-0.0934,0.1990,-0.1423,0.0597
17000,-1.7047,-9.0477,-0.0838,0.1711,-0.1282,0.0751
17008,-1.6759,-9.0525,-0.1149,0.1362,-0.1186,0.0965
17016,-1.6999,-8.9711,0.0096,0.1063,-0.1010,0.1106
17024,-1.7071,-8.9974,-0.0886,0.0690,-0.0885,0.1306
17032,-1.7430,-9.0118,-0.0718,0.0338,-0.0725,0.1466
17040,-1.7166,-9.0190,-0.0742,0.0008,-0.0578,0.1647
17048,-1.6616,-9.0070,-0.1149,-0.0296,-0.0368,0.1817
17056,-1.6305,-8.9998,-0.0958,-0.0618,-0.0213,0.1996
17064,-1.7430,-9.0046,-0.0742,-0.0946,-0.0072,0.2177
17072,-1.7023,-9.0621,-0.0479,-0.1250,0.0104,0.2332
17080,-1.6927,-9.0549,-0.1293,-0.1612,0.0317,0.2545
17088,-1.7119,-9.0142,-0.0359,-0.1876,0.0552,0.2705
17096,-1.7023,-9.1195,0.0024,-0.2188,0.0741,0.2827
17104,-1.7645,-9.0980,-0.0096,-0.2489,0.0917,0.3003
17112,-1.6903,-9.2057,0.0742,-0.2814,0.1151,0.3163
17120,-1.7095,-9.2225,-0.0024,-0.3104,0.1343,0.3277
17128,-1.7310,-9.2225,0.0239,-0.3427,0.1524,0.3472
17136,-1.7286,-9.2416,0.0120,-0.3677,0.1727,0.3592
17144,-1.7334,-9.3446,0.0000,-0.3949,0.1972,0.3714
17153,-1.6999,-9.3087,0.0144,-0.4255,0.2180,0.3885
17160,-1.7717,-9.3374,-0.0646,-0.4525,0.2401,0.3986
17168,-1.7909,-9.5002,0.0239,-0.4788,0.2587,0.4072
17176,-1.7549,-9.5529,-0.0024,-0.5057,0.2763,0.4186
17184,-1.7526,-9.5002,-0.0144,-0.5348,0.2926,0.4311
17192,-1.7526,-9.5888,-0.0072,-0.5582,0.3128,0.4397
17200,-1.8100,-9.6558,0.0215,-0.5817,0.3272,0.4482
17208,-1.7837,-9.7157,0.0599,-0.6041,0.3435,0.4572
17216,-1.7957,-9.7827,0.0742,-0.6267,0.3632,0.4610
17224,-1.7980,-9.8569,0.0479,-0.6491,0.3738,0.4756
17232,-1.7837,-9.8952,0.0670,-0.6728,0.3930,0.4810
17241,-1.8004,-9.9695,0.0311,-0.6901,0.4040,0.4860
17248,-1.7885,-10.0006,0.0934,-0.7112,0.4104,0.4946
17256,-1.8675,-10.0772,0.1724,-0.7320,0.4210,0.5004
17264,-1.8435,-10.1514,0.0718,-0.7533,0.4301,0.5081
17272,-1.8148,-10.2089,0.0622,-0.7746,0.4418,0.5132
17281,-1.8028,-10.2783,0.0455,-0.7989,0.4493,0.5137
17288,-1.8651,-10.3166,0.0168,-0.8146,0.4559,0.5196
17296,-1.8747,-10.3837,0.1580,-0.8330,0.4559,0.5271
17304,-1.8890,-10.3717,0.2107,-0.8484,0.4618,0.5287
17312,-1.8483,-10.4794,0.1269,-0.8660,0.4642,0.5324
17320,-1.8771,-10.4938,0.1053,-0.8823,0.4703,0.5359
17329,-1.9034,-10.5800,0.2011,-0.8969,0.4724,0.5401
17336,-1.9273,-10.6494,0.1556,-0.9172,0.4687,0.5412
17344,-1.9225,-10.7164,0.2514,-0.9316,0.4730,0.5468
17352,-1.9752,-10.8218,0.1269,-0.9491,0.4754,0.5508
17360,-1.9728,-10.8170,0.1700,-0.9654,0.4754,0.5537
17369,-1.9034,-10.8433,0.2418,-0.9774,0.4770,0.5540
17376,-1.9609,-10.8362,0.1317,-0.9992,0.4796,0.5550
17384,-2.0183,-11.0038,0.1628,-1.0104,0.4828,0.5609
17392,-2.0423,-10.9918,0.1676,-1.0296,0.4783,0.5622
17400,-2.0303,-11.0708,0.2251,-1.0413,0.4812,0.5638
17409,-2.0303,-11.1019,0.2466,-1.0565,0.4783,0.5636
17417,-2.0303,-11.1618,0.2035,-1.0688,0.4788,0.5633
17424,-2.0375,-11.1306,0.1772,-1.0834,0.4751,0.5622
17432,-1.9968,-11.1953,0.1891,-1.0965,0.4708,0.5606
17440,-1.9513,-11.2025,0.2466,-1.1077,0.4703,0.5614
17448,-1.9561,-11.2575,0.2011,-1.1245,0.4602,0.5582
17457,-2.0087,-11.2551,0.2155,-1.1335,0.4599,0.5537
17464,-2.0111,-11.2575,0.1772,-1.1402,0.4549,0.5473
17472,-2.0135,-11.2839,0.2777,-1.1530,0.4493,0.5510
17480,-1.9824,-11.2982,0.2729,-1.1572,0.4423,0.5468
17488,-2.0087,-11.3437,0.1604,-1.1652,0.4381,0.5385
17497,-2.0279,-11.3509,0.2658,-1.1700,0.4319,0.5361
17504,-2.0087,-11.3533,0.2658,-1.1740,0.4245,0.5391
17512,-2.0135,-11.3557,0.2538,-1.1770,0.4146,0.5268
17520,-1.9896,-11.3078,0.2298,-1.1842,0.4088,0.5199
17528,-2.0135,-11.2982,0.2705,-1.1831,0.3965,0.5151
17537,-2.0303,-11.3437,0.1987,-1.1868,0.3893,0.5081
17545,-1.9896,-11.3030,0.2490,-1.1876,0.3810,0.5031
17552,-2.0087,-11.3054,0.3256,-1.1839,0.3741,0.4972
17560,-1.9800,-11.2504,0.2490,-1.1836,0.3643,0.4898
17568,-1.9872,-11.2120,0.3304,-1.1818,0.3563,0.4863
17576,-2.0039,-11.2192,0.2538,-1.1751,0.3432,0.4748
17585,-2.0016,-11.2049,0.2825,-1.1682,0.3379,0.4716
17592,-1.9632,-11.1666,0.3711,-1.1634,0.3299,0.4634
17600,-1.9369,-11.1642,0.3639,-1.1556,0.3139,0.4586
17608,-1.9417,-11.1642,0.3807,-1.1447,0.3046,0.4519
17616,-1.9872,-11.0253,0.4166,-1.1370,0.3014,0.4450
17625,-1.9369,-10.9726,0.3615,-1.1242,0.2960,0.4386
17633,-1.9513,-10.9990,0.2107,-1.1138,0.2912,0.4319
17640,-1.9393,-10.9152,0.3735,-1.0976,0.2832,0.4247
17648,-1.9417,-10.8960,0.2945,-1.0872,0.2785,0.4175
17656,-1.9752,-10.8769,0.3472,-1.0741,0.2697,0.4122
17665,-1.8555,-10.7907,0.2921,-1.0616,0.2670,0.4021
17673,-1.9106,-10.7715,0.3256,-1.0515,0.2630,0.3944
17680,-1.8699,-10.6949,0.3519,-1.0320,0.2590,0.3853
17688,-1.8627,-10.6326,0.3400,-1.0160,0.2577,0.3794
17696,-1.8340,-10.6710,0.3352,-1.0027,0.2507,0.3712
17704,-1.8268,-10.5752,0.2729,-0.9880,0.2483,0.3589
17713,-1.8675,-10.5010,0.3687,-0.9702,0.2435,0.3507
17721,-1.8340,-10.4387,0.2610,-0.9558,0.2414,0.3405
17728,-1.8028,-10.3980,0.2945,-0.9355,0.2395,0.3320
17736,-1.7693,-10.4052,0.1939,-0.9134,0.2390,0.3256
17744,-1.8028,-10.3645,0.3783,-0.9001,0.2377,0.3123
17753,-1.8148,-10.2568,0.3735,-0.8825,0.2366,0.2979
17761,-1.7286,-10.1849,0.3328,-0.8604,0.2358,0.2891
17768,-1.8052,-10.1490,0.3974,-0.8415,0.2310,0.2747
17776,-1.7741,-10.1155,0.2969,-0.8183,0.2310,0.2689
17784,-1.7119,-10.0916,0.2610,-0.7970,0.2246,0.2523
17793,-1.7166,-9.9695,0.3065,-0.7749,0.2302,0.2401
17801,-1.6927,-9.9264,0.2897,-0.7506,0.2281,0.2265
17809,-1.6831,-9.9000,0.2825,-0.7266,0.2289,0.2150
17816,-1.6735,-9.7851,0.2658,-0.7003,0.2244,0.2004
17824,-1.7023,-9.7181,0.3663,-0.6736,0.2249,0.1887
17832,-1.7406,-9.7612,0.2849,-0.6504,0.2249,0.1775
17841,-1.6448,-9.6199,0.3352,-0.6185,0.2180,0.1628
17849,-1.7238,-9.5768,0.3065,-0.5931,0.2198,0.1516
17856,-1.6640,-9.5720,0.3304,-0.5628,0.2134,0.1388
17864,-1.6185,-9.5193,0.2203,-0.5375,0.2116,0.1215
17872,-1.6400,-9.4499,0.2801,-0.5041,0.2102,0.1050
17881,-1.5754,-9.4092,0.2490,-0.4722,0.2020,0.0962
17889,-1.5514,-9.3996,0.3304,-0.4381,0.2028,0.0815
17897,-1.6113,-9.3470,0.2921,-0.4066,0.2017,0.0650
17904,-1.5874,-9.3350,0.3112,-0.3738,0.1966,0.0528
17912,-1.5658,-9.3087,0.2897,-0.3357,0.1881,0.0386
17921,-1.5562,-9.3302,0.3041,-0.3032,0.1855,0.0218
17929,-1.5586,-9.2608,0.3065,-0.2665,0.1791,0.0085
17937,-1.5850,-9.1961,0.2729,-0.2326,0.1711,-0.0021
17944,-1.5874,-9.2608,0.3112,-0.1961,0.1673,-0.0192
17952,-1.5682,-9.2081,0.3567,-0.1604,0.1553,-0.0328
17960,-1.6257,-9.2009,0.3567,-0.1252,0.1532,-0.0461
17969,-1.6113,-9.1842,0.3280,-0.0866,0.1362,-0.0576
17977,-1.5610,-9.1746,0.2658,-0.0485,0.1234,-0.0717
17985,-1.5514,-9.1794,0.3663,-0.0093,0.1167,-0.0866
17992,-1.5993,-9.2105,0.3017,0.0234,0.1005,-0.0997
18000,-1.5706,-9.1985,0.3472,0.0568,0.0927,-0.1119
18009,-1.5179,-9.2392,0.3232,0.0970,0.0719,-0.1242
18017,-1.5634,-9.2560,0.3232,0.1298,0.0624,-0.1410
18025,-1.5969,-9.1722,0.2825,0.1644,0.0474,-0.1506
18032,-1.6041,-9.2201,0.2969,0.1985,0.0280,-0.1649
18040,-1.6257,-9.2225,0.3400,0.2321,0.0149,-0.1783
18049,-1.5730,-9.2344,0.2514,0.2667,-0.0067,-0.1876
18057,-1.6616,-9.3134,0.3280,0.2979,-0.0192,-0.1982
18065,-1.6328,-9.3254,0.3352,0.3272,-0.0381,-0.2116
18073,-1.6041,-9.3541,0.3017,0.3640,-0.0533,-0.2217
18080,-1.6041,-9.3422,0.2394,0.3938,-0.0690,-0.2324
18088,-1.6281,-9.3853,0.2394,0.4229,-0.0874,-0.2457
18097,-1.6448,-9.4140,0.2251,0.4543,-0.1055,-0.2537
18105,-1.6233,-9.4379,0.2825,0.4794,-0.1220,-0.2718
18113,-1.6688,-9.5313,0.2011,0.5135,-0.1415,-0.2793
18120,-1.5874,-9.5936,0.2155,0.5423,-0.1567,-0.2883
18128,-1.7286,-9.6247,0.2586,0.5702,-0.1724,-0.3006
18137,-1.7047,-9.6750,0.2466,0.5982,-0.1852,-0.3126
18145,-1.7214,-9.6798,0.1556,0.6254,-0.2057,-0.3195
18153,-1.7047,-9.7372,0.2777,0.6542,-0.2158,-0.3307
18161,-1.7765,-9.8186,0.2394,0.6813,-0.2313,-0.3389
18168,-1.7238,-9.8474,0.1508,0.7016,-0.2470,-0.3488
18177,-1.7334,-9.9096,0.1772,0.7280,-0.2614,-0.3579
18185,-1.7382,-9.9551,0.2059,0.7501,-0.2763,-0.3600
18193,-1.7597,-10.0485,0.2274,0.7706,-0.2870,-0.3698
18201,-1.7765,-10.0724,0.2227,0.7914,-0.3000,-0.3749
18208,-1.8028,-10.1251,0.1173,0.8124,-0.3083,-0.3853
18216,-1.8387,-10.2017,0.1413,0.8300,-0.3176,-0.3869
18225,-1.8004,-10.2807,0.1844,0.8497,-0.3296,-0.3928
18233,-1.8124,-10.2663,0.2227,0.8663,-0.3355,-0.3962
18241,-1.7909,-10.3406,0.1101,0.8804,-0.3432,-0.4069
18248,-1.9010,-10.3789,0.0431,0.8937,-0.3496,-0.4090
18256,-1.8340,-10.4148,0.0694,0.9086,-0.3627,-0.4149
18265,-1.8316,-10.4459,0.1963,0.9238,-0.3704,-0.4165
18273,-1.8627,-10.5297,0.1269,0.9366,-0.3781,-0.4237
18281,-1.8794,-10.6518,0.1532,0.9475,-0.3832,-0.4218
18289,-1.9345,-10.6087,0.1460,0.9601,-0.3853,-0.4255
18296,-1.9369,-10.6710,0.1317,0.9723,-0.3936,-0.4287
18305,-1.8986,-10.7021,0.0838,0.9777,-0.3968,-0.4319
18313,-1.9369,-10.6734,0.0551,0.9926,-0.4016,-0.4354
18321,-1.9704,-10.7811,0.0383,0.9976,-0.4066,-0.4410
18329,-1.9896,-10.8984,0.0766,1.0139,-0.4053,-0.4399
18336,-1.8842,-10.8769,0.0239,1.0211,-0.4045,-0.4442
18344,-2.0135,-10.9487,0.0958,1.0317,-0.4040,-0.4463
18353,-2.0135,-10.9367,0.1030,1.0344,-0.4040,-0.4509
18361,-2.0159,-10.9607,0.0359,1.0451,-0.4008,-0.4535
18369,-2.0135,-10.9535,0.0168,1.0472,-0.3962,-0.4596
18377,-1.9800,-11.0397,0.0790,1.0565,-0.3928,-0.4634
18384,-2.0351,-11.0468,0.1269,1.0637,-0.3893,-0.4652
18393,-1.9920,-11.0780,0.0503,1.0733,-0.3936,-0.4684
18401,-2.0207,-11.1522,0.1053,1.0752,-0.3898,-0.4668
18409,-2.0399,-11.1115,0.0215,1.0866,-0.3840,-0.4743
18417,-2.1045,-11.1163,0.1748,1.0930,-0.3834,-0.4746
18424,-2.0518,-11.1737,0.0982,1.1024,-0.3741,-0.4770
18433,-2.0063,-11.1618,0.0311,1.1042,-0.3712,-0.4786
18441,-2.0159,-11.2288,0.0934,1.1090,-0.3661,-0.4783
18449,-2.0518,-11.1498,0.1149,1.1154,-0.3653,-0.4751
18457,-2.0159,-11.1570,0.0479,1.1175,-0.3579,-0.4780
18465,-2.0207,-11.1761,0.0670,1.1197,-0.3573,-0.4759
18472,-2.0494,-11.1498,0.0168,1.1210,-0.3504,-0.4746
18481,-2.0997,-11.1282,0.0599,1.1221,-0.3451,-0.4738
18489,-2.0470,-11.1881,0.0287,1.1231,-0.3397,-0.4690
18497,-2.0542,-11.0923,0.0551,1.1210,-0.3262,-0.4682
18505,-2.0423,-11.0612,0.0622,1.1146,-0.3232,-0.4615
18512,-2.0279,-11.0325,0.0455,1.1143,-0.3203,-0.4570
18521,-2.0375,-11.0516,-0.0096,1.1098,-0.3120,-0.4554
18529,-2.0542,-11.0349,-0.0096,1.1005,-0.3067,-0.4474
18537,-2.0063,-10.9846,-0.0359,1.0970,-0.2982,-0.4450
18545,-1.9800,-10.9870,0.0503,1.0840,-0.2918,-0.4314
18553,-1.9824,-10.9415,-0.0048,1.0789,-0.2870,-0.4261
18561,-1.9992,-10.9463,-0.0215,1.0685,-0.2827,-0.4165
18569,-2.0087,-10.8745,-0.0048,1.0587,-0.2745,-0.4080
18577,-1.9968,-10.7931,-0.0527,1.0491,-0.2726,-0.3970
18585,-2.0590,-10.7643,0.0168,1.0347,-0.2675,-0.3872
18593,-1.9441,-10.7691,-0.0072,1.0227,-0.2601,-0.3834
