Timestamp,AccelX,AccelY,AccelZ,GyroX,GyroY,GyroZ
407,-1.2809,-9.9599,-0.1269,0.4042,-0.3861,0.2190
414,-1.2977,-9.9742,-0.0934,0.3613,-0.3816,0.2292
422,-1.2402,-9.9718,-0.0311,0.3184,-0.3741,0.2334
431,-1.2210,-9.8689,-0.0263,0.2864,-0.3619,0.2358
438,-1.1923,-9.8976,-0.0479,0.2558,-0.3475,0.2294
446,-1.1923,-9.8402,0.0000,0.2292,-0.3347,0.2214
454,-1.0846,-9.8282,0.0503,0.2097,-0.3158,0.2076
462,-1.0822,-9.8090,0.0215,0.1966,-0.2960,0.1913
471,-1.0558,-9.7875,0.1030,0.1836,-0.2726,0.1695
479,-1.0439,-9.7827,0.0982,0.1831,-0.2465,0.1450
486,-1.0702,-9.7803,0.1101,0.1820,-0.2150,0.1130
494,-1.0175,-9.7252,0.1700,0.1865,-0.1849,0.0797
502,-1.0343,-9.6798,0.0551,0.1940,-0.1596,0.0394
510,-0.9673,-9.6726,0.1844,0.2078,-0.1319,0.0011
519,-0.9840,-9.6438,0.2203,0.2292,-0.1026,-0.0432
526,-1.0439,-9.6774,0.1556,0.2441,-0.0770,-0.0874
534,-1.0032,-9.5984,0.1508,0.2643,-0.0482,-0.1316
542,-1.0511,-9.5792,0.1221,0.2774,-0.0253,-0.1641
550,-1.1181,-9.5792,0.1341,0.2931,-0.0016,-0.1905
559,-1.1588,-9.5960,0.1724,0.2960,0.0218,-0.2124
567,-1.1588,-9.6007,0.0096,0.2926,0.0384,-0.2206
574,-1.2186,-9.5768,0.0239,0.2878,0.0594,-0.2244
582,-1.2234,-9.4906,0.0503,0.2779,0.0693,-0.2220
590,-1.2186,-9.4595,0.0096,0.2593,0.0834,-0.2113
599,-1.3192,-9.4715,-0.0886,0.2388,0.0978,-0.1932
607,-1.3240,-9.4020,0.0479,0.2100,0.1031,-0.1705
614,-1.3695,-9.4212,-0.0551,0.1783,0.1034,-0.1476
622,-1.3671,-9.3709,-0.0407,0.1471,0.1055,-0.1202
630,-1.3479,-9.4188,-0.0431,0.1103,0.1010,-0.0909
638,-1.3599,-9.3661,-0.0479,0.0722,0.1023,-0.0541
647,-1.4461,-9.4092,-0.1173,0.0304,0.0943,-0.0200
655,-1.3982,-9.3901,-0.1006,-0.0165,0.0906,0.0128
662,-1.4174,-9.3853,-0.1293,-0.0594,0.0842,0.0493
670,-1.3815,-9.3470,-0.0527,-0.1071,0.0799,0.0855
678,-1.3479,-9.3326,-0.0622,-0.1615,0.0650,0.1194
687,-1.3647,-9.4068,-0.0096,-0.2145,0.0584,0.1556
695,-1.4150,-9.4260,-0.1077,-0.2641,0.0522,0.1873
702,-1.3886,-9.4858,-0.1341,-0.3166,0.0456,0.2137
710,-1.3096,-9.5074,-0.2011,-0.3744,0.0432,0.2411
718,-1.3551,-9.5553,-0.1245,-0.4319,0.0413,0.2683
727,-1.3264,-9.5624,-0.1867,-0.4839,0.0450,0.2910
735,-1.3048,-9.6414,-0.0599,-0.5383,0.0421,0.3086
743,-1.2498,-9.7109,-0.0072,-0.5788,0.0464,0.3240
750,-1.2378,-9.7540,-0.0335,-0.6227,0.0525,0.3368
758,-1.2234,-9.7731,0.0599,-0.6547,0.0624,0.3355
766,-1.2617,-9.8043,0.1556,-0.6779,0.0679,0.3368
775,-1.1899,-9.8737,0.1197,-0.7000,0.0807,0.3301
783,-1.1875,-9.9599,0.1796,-0.7160,0.0933,0.3195
790,-1.2282,-9.9240,0.1197,-0.7277,0.1047,0.3080
798,-1.1157,-9.9599,0.2442,-0.7368,0.1234,0.2899
806,-1.1492,-10.0556,0.2418,-0.7434,0.1412,0.2707
815,-1.1492,-10.1155,0.1389,-0.7461,0.1583,0.2475
823,-1.0870,-10.0628,0.2251,-0.7461,0.1772,0.2225
831,-1.1540,-10.1179,0.2705,-0.7413,0.1948,0.1972
838,-1.1779,-10.1706,0.2753,-0.7341,0.2126,0.1681
846,-1.1588,-10.1849,0.2729,-0.7242,0.2286,0.1375
855,-1.1277,-10.1514,0.2490,-0.7160,0.2478,0.1103
863,-1.1468,-10.2352,0.2346,-0.7056,0.2649,0.0866
871,-1.2617,-10.1993,0.2370,-0.6931,0.2809,0.0621
878,-1.2737,-10.2328,0.1915,-0.6840,0.2947,0.0461
886,-1.2546,-10.3238,0.3112,-0.6752,0.3040,0.0312
894,-1.3288,-10.3214,0.2011,-0.6710,0.3126,0.0216
903,-1.3838,-10.3525,0.1652,-0.6707,0.3230,0.0152
911,-1.3431,-10.3813,0.1676,-0.6662,0.3222,0.0104
919,-1.3551,-10.3693,0.2274,-0.6702,0.3259,0.0109
926,-1.3144,-10.3238,0.1891,-0.6720,0.3240,0.0147
934,-1.3168,-10.4196,0.2274,-0.6755,0.3208,0.0211
943,-1.4389,-10.4100,0.1652,-0.6864,0.3139,0.0272
951,-1.4700,-10.4435,0.2921,-0.6976,0.3054,0.0410
959,-1.5107,-10.4698,0.2203,-0.7157,0.2963,0.0560
966,-1.5107,-10.4483,0.1987,-0.7306,0.2817,0.0738
974,-1.4557,-10.4866,0.1365,-0.7514,0.2683,0.0901
983,-1.4988,-10.5010,0.0982,-0.7743,0.2515,0.1122
991,-1.4772,-10.5345,0.1556,-0.7997,0.2356,0.1292
999,-1.5083,-10.5369,0.1053,-0.8322,0.2217,0.1569
1007,-1.5323,-10.5800,0.1077,-0.8631,0.2060,0.1807
1014,-1.5395,-10.5417,0.1149,-0.8974,0.1924,0.2054
1022,-1.5227,-10.5704,0.1724,-0.9270,0.1719,0.2308
1031,-1.5251,-10.5872,0.0838,-0.9619,0.1540,0.2534
1039,-1.4868,-10.6781,0.0766,-0.9920,0.1396,0.2718
1047,-1.4700,-10.6997,0.1269,-1.0211,0.1300,0.2875
1054,-1.4605,-10.7571,0.1652,-1.0456,0.1154,0.2968
1062,-1.3551,-10.7332,0.2298,-1.0669,0.1069,0.3083
1071,-1.4102,-10.7595,0.2394,-1.0781,0.0957,0.3126
1079,-1.3719,-10.7859,0.1269,-1.0957,0.0882,0.3152
1087,-1.3431,-10.8290,0.2729,-1.0989,0.0847,0.3088
1094,-1.3312,-10.7428,0.2610,-1.1026,0.0767,0.3024
1102,-1.3288,-10.7428,0.1820,-1.1000,0.0762,0.2931
1111,-1.2570,-10.7380,0.3472,-1.0922,0.0759,0.2806
1119,-1.2043,-10.7739,0.3543,-1.0872,0.0789,0.2627
1127,-1.2737,-10.7691,0.3926,-1.0760,0.0799,0.2451
1135,-1.2450,-10.7787,0.3184,-1.0611,0.0834,0.2270
1142,-1.2689,-10.7308,0.2825,-1.0453,0.0962,0.2073
1150,-1.2139,-10.7524,0.3280,-1.0275,0.0994,0.1871
1159,-1.2498,-10.7069,0.2825,-1.0083,0.1087,0.1663
1167,-1.2186,-10.6805,0.3208,-0.9846,0.1162,0.1468
1175,-1.2330,-10.5943,0.3280,-0.9643,0.1247,0.1255
1182,-1.2881,-10.5848,0.3304,-0.9355,0.1327,0.1095
1190,-1.3623,-10.5704,0.3591,-0.9076,0.1410,0.0927
1199,-1.2258,-10.5297,0.4070,-0.8804,0.1492,0.0770
1207,-1.2426,-10.5105,0.2705,-0.8543,0.1561,0.0605
1215,-1.2977,-10.5034,0.4166,-0.8274,0.1612,0.0477
1223,-1.3312,-10.4411,0.3424,-0.7978,0.1671,0.0376
1230,-1.3072,-10.4507,0.3998,-0.7677,0.1633,0.0312
1239,-1.2809,-10.3621,0.3663,-0.7466,0.1697,0.0272
1247,-1.3336,-10.4028,0.3376,-0.7282,0.1684,0.0269
1255,-1.3791,-10.3453,0.3855,-0.7061,0.1716,0.0306
1263,-1.3886,-10.3693,0.2634,-0.6952,0.1660,0.0309
1270,-1.3982,-10.2999,0.3424,-0.6768,0.1655,0.0397
1278,-1.3671,-10.2903,0.2921,-0.6646,0.1609,0.0448
1287,-1.4317,-10.2424,0.2873,-0.6518,0.1516,0.0581
1295,-1.3838,-10.1801,0.2753,-0.6464,0.1495,0.0674
1303,-1.3838,-10.1466,0.1891,-0.6390,0.1396,0.0818
1311,-1.3934,-10.1394,0.2322,-0.6390,0.1330,0.0965
1318,-1.3695,-10.1490,0.1987,-0.6368,0.1250,0.1090
1327,-1.3815,-10.1035,0.2945,-0.6283,0.1175,0.1258
1335,-1.3336,-10.0700,0.1628,-0.6275,0.1092,0.1410
1343,-1.3767,-10.0269,0.1915,-0.6251,0.1042,0.1527
1351,-1.3144,-10.0341,0.1437,-0.6233,0.0954,0.1649
1358,-1.2905,-9.9958,0.2179,-0.6217,0.0938,0.1737
1367,-1.2977,-9.9599,0.2418,-0.6166,0.0847,0.1767
1375,-1.3001,-9.9359,0.1484,-0.6147,0.0850,0.1823
1383,-1.2641,-9.9192,0.2059,-0.6051,0.0821,0.1871
1391,-1.2498,-9.9311,0.3400,-0.5969,0.0789,0.1857
1399,-1.2641,-9.8641,0.3304,-0.5836,0.0799,0.1849
1406,-1.2354,-9.8881,0.2993,-0.5678,0.0805,0.1809
1415,-1.1899,-9.8497,0.2322,-0.5513,0.0783,0.1732
1423,-1.2019,-9.7851,0.1580,-0.5343,0.0855,0.1623
1431,-1.1827,-9.7540,0.3496,-0.5124,0.0850,0.1482
1439,-1.1947,-9.7013,0.2753,-0.4890,0.0930,0.1332
1446,-1.1325,-9.6678,0.3711,-0.4652,0.0973,0.1180
1455,-1.1277,-9.6869,0.3424,-0.4354,0.1005,0.1061
1463,-1.0989,-9.6558,0.2945,-0.4098,0.1042,0.0858
1471,-1.0870,-9.6438,0.2610,-0.3792,0.1098,0.0687
1479,-1.0918,-9.5648,0.4286,-0.3416,0.1127,0.0533
1487,-1.1205,-9.5265,0.3328,-0.3078,0.1151,0.0357
1495,-1.1013,-9.5361,0.3208,-0.2710,0.1231,0.0173
1503,-1.1061,-9.5600,0.3615,-0.2329,0.1255,0.0000
1511,-1.1085,-9.5098,0.3543,-0.1945,0.1223,-0.0208
1519,-1.1229,-9.4643,0.2658,-0.1561,0.1271,-0.0360
1527,-1.1468,-9.5409,0.3639,-0.1127,0.1252,-0.0498
1534,-1.1756,-9.5050,0.4741,-0.0685,0.1220,-0.0645
1543,-1.1516,-9.5193,0.4142,-0.0274,0.1196,-0.0743
1551,-1.2186,-9.5098,0.4429,0.0125,0.1148,-0.0831
1559,-1.2378,-9.4930,0.3208,0.0520,0.1023,-0.0874
1567,-1.2282,-9.4930,0.3472,0.0895,0.0954,-0.0882
1575,-1.1899,-9.4763,0.3448,0.1236,0.0877,-0.0898
1583,-1.2785,-9.4691,0.3041,0.1585,0.0735,-0.0882
1591,-1.2498,-9.5385,0.3184,0.1881,0.0600,-0.0850
1599,-1.2809,-9.5217,0.3424,0.2148,0.0485,-0.0767
1607,-1.2905,-9.5122,0.2322,0.2417,0.0314,-0.0719
1615,-1.2641,-9.4810,0.2274,0.2614,0.0163,-0.0618
1623,-1.2665,-9.5217,0.1748,0.2843,0.0045,-0.0541
1631,-1.2258,-9.5170,0.2107,0.3027,-0.0136,-0.0466
1639,-1.2402,-9.5768,0.2682,0.3230,-0.0258,-0.0338
1647,-1.2761,-9.5912,0.2322,0.3360,-0.0464,-0.0234
1655,-1.2761,-9.5696,0.2203,0.3493,-0.0642,-0.0184
1662,-1.2737,-9.5840,0.1796,0.3680,-0.0783,-0.0056
1671,-1.2402,-9.6462,0.1269,0.3802,-0.0954,-0.0003
1679,-1.2785,-9.7157,0.1197,0.3917,-0.1127,0.0080
1687,-1.2330,-9.7348,0.1197,0.4058,-0.1258,0.0123
1695,-1.2354,-9.7229,0.1628,0.4183,-0.1410,0.0173
1703,-1.2809,-9.7037,0.1532,0.4295,-0.1553,0.0181
1711,-1.2881,-9.8210,0.2035,0.4442,-0.1665,0.0157
1719,-1.2761,-9.7659,0.2442,0.4594,-0.1769,0.0173
1727,-1.2234,-9.8043,0.1484,0.4719,-0.1855,0.0107
1735,-1.2426,-9.8881,0.2873,0.4892,-0.1892,0.0027
1743,-1.1899,-9.9072,0.1532,0.5065,-0.1966,-0.0064
1751,-1.2306,-9.9503,0.2729,0.5263,-0.1996,-0.0149
1759,-1.2210,-9.9575,0.1532,0.5388,-0.2086,-0.0272
1767,-1.2115,-9.9742,0.2442,0.5617,-0.2086,-0.0381
1775,-1.1756,-9.9862,0.2131,0.5812,-0.2113,-0.0496
1783,-1.2282,-9.9814,0.1891,0.5979,-0.2145,-0.0648
1792,-1.2163,-10.0413,0.2825,0.6174,-0.2081,-0.0743
1799,-1.1827,-10.0485,0.2586,0.6427,-0.2137,-0.0863
1807,-1.1827,-10.0724,0.0790,0.6582,-0.2073,-0.1018
1815,-1.2737,-10.1825,0.2155,0.6760,-0.2110,-0.1111
1823,-1.2354,-10.1873,0.1820,0.7035,-0.2054,-0.1234
1831,-1.2330,-10.2376,0.2538,0.7242,-0.2094,-0.1348
1839,-1.2426,-10.2280,0.2203,0.7368,-0.2110,-0.1412
1847,-1.3240,-10.2783,0.0886,0.7637,-0.2078,-0.1487
1855,-1.2234,-10.3382,0.1580,0.7845,-0.2038,-0.1564
1863,-1.3001,-10.3382,0.1556,0.8042,-0.2049,-0.1644
1871,-1.3360,-10.2999,0.2322,0.8212,-0.2054,-0.1639
1880,-1.3192,-10.3884,0.1245,0.8391,-0.2054,-0.1663
1887,-1.3336,-10.3765,0.1796,0.8548,-0.2076,-0.1665
1895,-1.3815,-10.4172,0.1269,0.8727,-0.2124,-0.1679
1903,-1.3408,-10.4244,0.1006,0.8807,-0.2108,-0.1628
1911,-1.3575,-10.4124,0.0622,0.8969,-0.2129,-0.1588
1920,-1.4126,-10.4507,0.2346,0.9004,-0.2220,-0.1545
1927,-1.3671,-10.4674,0.1437,0.9153,-0.2233,-0.1492
1935,-1.4293,-10.5177,0.1748,0.9204,-0.2244,-0.1420
1943,-1.4341,-10.5536,0.1700,0.9241,-0.2326,-0.1303
1951,-1.4293,-10.5417,0.1125,0.9294,-0.2348,-0.1271
1959,-1.4341,-10.6566,0.1197,0.9326,-0.2369,-0.1191
1968,-1.4246,-10.5584,0.0455,0.9342,-0.2465,-0.1082
1975,-1.4485,-10.5848,0.0383,0.9318,-0.2441,-0.0997
1983,-1.4509,-10.5728,0.0886,0.9324,-0.2486,-0.0970
1991,-1.4293,-10.6015,0.1006,0.9278,-0.2473,-0.0858
1999,-1.4006,-10.5728,-0.0024,0.9233,-0.2489,-0.0813
2008,-1.4126,-10.6614,0.0814,0.9182,-0.2491,-0.0733
2015,-1.4293,-10.6255,0.1508,0.9126,-0.2497,-0.0725
2023,-1.3838,-10.6422,0.0982,0.9097,-0.2478,-0.0693
2031,-1.3384,-10.6542,0.0335,0.9049,-0.2478,-0.0717
2039,-1.3312,-10.6159,0.0670,0.8980,-0.2411,-0.0709
2048,-1.4030,-10.6279,0.0910,0.8868,-0.2366,-0.0751
2056,-1.3767,-10.6422,0.1341,0.8887,-0.2350,-0.0746
2063,-1.3384,-10.5608,0.0575,0.8804,-0.2265,-0.0818
2071,-1.3791,-10.5991,0.0383,0.8735,-0.2174,-0.0831
2079,-1.2977,-10.6207,0.0862,0.8705,-0.2124,-0.0893
2087,-1.3216,-10.5991,0.0766,0.8655,-0.2052,-0.0949
2096,-1.3934,-10.5919,0.0503,0.8591,-0.1972,-0.1029
2103,-1.3503,-10.5776,0.0503,0.8569,-0.1916,-0.1077
2111,-1.3431,-10.6326,0.0838,0.8521,-0.1884,-0.1130
2119,-1.3072,-10.5680,0.0886,0.8460,-0.1772,-0.1186
2127,-1.3384,-10.5656,0.0910,0.8452,-0.1697,-0.1242
2136,-1.3001,-10.5393,0.0527,0.8428,-0.1607,-0.1295
2144,-1.3647,-10.4411,-0.0096,0.8378,-0.1559,-0.1322
2151,-1.3360,-10.4698,0.0527,0.8308,-0.1516,-0.1346
2159,-1.3575,-10.4770,0.1030,0.8252,-0.1410,-0.1391
2167,-1.3838,-10.4914,0.0263,0.8210,-0.1388,-0.1394
2176,-1.3360,-10.4339,0.1197,0.8146,-0.1378,-0.1359
2184,-1.3360,-10.4315,0.0934,0.8074,-0.1308,-0.1402
2191,-1.3479,-10.3765,0.0239,0.7986,-0.1292,-0.1359
2199,-1.3886,-10.3884,0.0934,0.7957,-0.1255,-0.1327
2207,-1.3862,-10.3549,0.1269,0.7882,-0.1258,-0.1282
2215,-1.3144,-10.2783,0.0503,0.7733,-0.1274,-0.1210
2224,-1.3455,-10.2208,0.0287,0.7639,-0.1271,-0.1156
2232,-1.3408,-10.2352,0.0168,0.7528,-0.1292,-0.1106
2239,-1.3216,-10.1370,0.0239,0.7426,-0.1314,-0.1037
2247,-1.3886,-10.2041,0.1101,0.7298,-0.1282,-0.0946
2255,-1.3503,-10.1778,-0.0096,0.7157,-0.1330,-0.0839
2264,-1.3168,-10.0652,-0.0072,0.6971,-0.1343,-0.0730
2272,-1.3934,-10.0389,0.0551,0.6768,-0.1375,-0.0594
2279,-1.3336,-10.0796,-0.0287,0.6579,-0.1378,-0.0525
2287,-1.3862,-10.0485,0.0000,0.6323,-0.1367,-0.0389
2295,-1.2953,-9.9503,-0.0168,0.6115,-0.1364,-0.0309
2304,-1.3216,-9.9335,-0.0886,0.5868,-0.1343,-0.0234
2312,-1.3120,-9.9048,0.0287,0.5670,-0.1394,-0.0181
2319,-1.2881,-9.8402,0.0742,0.5449,-0.1375,-0.0101
2327,-1.3288,-9.8737,0.0622,0.5241,-0.1372,-0.0080
2335,-1.2689,-9.8234,0.0215,0.5041,-0.1383,-0.0019
2343,-1.2115,-9.8617,0.0192,0.4810,-0.1391,0.0000
2352,-1.2354,-9.7995,-0.0048,0.4610,-0.1364,0.0061
2360,-1.2139,-9.7755,-0.0359,0.4381,-0.1319,0.0080
2367,-1.2282,-9.7731,-0.0239,0.4154,-0.1303,0.0093
2375,-1.2546,-9.7109,0.1053,0.3946,-0.1260,0.0139
2383,-1.2306,-9.7037,0.0168,0.3659,-0.1212,0.0149
2392,-1.1923,-9.6893,0.0072,0.3429,-0.1178,0.0155
2400,-1.2833,-9.7061,-0.0096,0.3171,-0.1140,0.0179
2407,-1.2067,-9.5864,-0.0096,0.2944,-0.1050,0.0179
2415,-1.2210,-9.6031,0.0934,0.2707,-0.0983,0.0160
2423,-1.2474,-9.6534,0.0072,0.2473,-0.0922,0.0184
2432,-1.2019,-9.5864,-0.0215,0.2217,-0.0850,0.0195
2440,-1.2570,-9.5768,0.0215,0.1998,-0.0813,0.0211
2448,-1.1396,-9.5984,-0.0239,0.1775,-0.0727,0.0189
2455,-1.2354,-9.5792,0.0263,0.1561,-0.0666,0.0184
2463,-1.2306,-9.5768,0.0168,0.1316,-0.0544,0.0216
2471,-1.2306,-9.5744,0.0766,0.1119,-0.0480,0.0205
2480,-1.2402,-9.5720,0.0024,0.0927,-0.0461,0.0211
2488,-1.1947,-9.5600,0.0503,0.0711,-0.0349,0.0234
2495,-1.2785,-9.5026,0.0431,0.0536,-0.0266,0.0245
2503,-1.2594,-9.5720,0.0622,0.0346,-0.0216,0.0266
2511,-1.2019,-9.5170,-0.0215,0.0125,-0.0160,0.0322
2520,-1.2019,-9.5600,0.0790,-0.0093,-0.0101,0.0365
2528,-1.1708,-9.5313,-0.0072,-0.0290,-0.0013,0.0418
2536,-1.2234,-9.5457,0.0335,-0.0525,0.0032,0.0458
2543,-1.2665,-9.5146,0.0215,-0.0738,0.0112,0.0549
2551,-1.2617,-9.5457,-0.0048,-0.0911,0.0181,0.0608
2560,-1.2713,-9.5624,0.0263,-0.1178,0.0240,0.0690
2568,-1.2354,-9.4978,0.0670,-0.1370,0.0282,0.0770
2576,-1.3192,-9.5816,0.0144,-0.1625,0.0370,0.0834
2583,-1.2929,-9.5816,-0.0192,-0.1836,0.0424,0.0922
2591,-1.2354,-9.5888,0.0120,-0.2060,0.0506,0.0997
2599,-1.2139,-9.6367,0.0359,-0.2262,0.0570,0.1074
2608,-1.2689,-9.5960,0.0383,-0.2481,0.0602,0.1146
2616,-1.2713,-9.6582,0.0407,-0.2707,0.0711,0.1239
2624,-1.2905,-9.6199,0.0646,-0.2950,0.0762,0.1292
2631,-1.2857,-9.6055,0.0335,-0.3214,0.0839,0.1370
2639,-1.2809,-9.6247,0.0024,-0.3453,0.0941,0.1444
2648,-1.3192,-9.6774,0.0551,-0.3685,0.0975,0.1508
2656,-1.2186,-9.7348,0.0886,-0.3968,0.1079,0.1569
2664,-1.2809,-9.7875,-0.0024,-0.4189,0.1122,0.1599
2671,-1.3360,-9.7372,-0.0383,-0.4469,0.1247,0.1652
2679,-1.2665,-9.8210,0.0192,-0.4716,0.1311,0.1695
2688,-1.2689,-9.8234,-0.0120,-0.4935,0.1378,0.1716
2696,-1.2594,-9.8354,0.0886,-0.5180,0.1474,0.1732
2704,-1.2234,-9.9240,0.0646,-0.5369,0.1545,0.1729
2712,-1.2641,-9.8737,0.1125,-0.5548,0.1657,0.1705
2719,-1.3192,-9.9359,0.0910,-0.5750,0.1740,0.1711
2727,-1.2426,-9.9742,0.0503,-0.5913,0.1769,0.1697
2736,-1.2737,-10.0054,0.0742,-0.6054,0.1879,0.1663
2744,-1.2809,-10.0173,0.0934,-0.6166,0.1913,0.1692
2752,-1.2330,-10.0461,0.1508,-0.6307,0.1977,0.1628
2759,-1.2761,-10.0963,0.1628,-0.6427,0.2028,0.1628
2767,-1.3168,-10.1442,0.1269,-0.6558,0.2089,0.1617
2776,-1.2354,-10.1347,0.1293,-0.6678,0.2132,0.1575
2784,-1.3096,-10.1778,0.1700,-0.6776,0.2193,0.1585
2792,-1.3192,-10.1825,0.0934,-0.6875,0.2204,0.1559
2800,-1.2881,-10.2017,0.1604,-0.6955,0.2236,0.1556
2807,-1.3216,-10.1969,0.2538,-0.7080,0.2233,0.1498
2816,-1.3431,-10.2999,0.2562,-0.7165,0.2316,0.1500
2824,-1.3001,-10.2903,0.1676,-0.7248,0.2329,0.1495
2832,-1.2522,-10.2951,0.1389,-0.7354,0.2316,0.1516
2840,-1.3671,-10.3621,0.1796,-0.7405,0.2300,0.1508
2847,-1.3408,-10.3286,0.1772,-0.7488,0.2316,0.1508
2855,-1.3623,-10.3717,0.2107,-0.7536,0.2313,0.1527
2864,-1.3360,-10.4148,0.2251,-0.7605,0.2228,0.1524
2872,-1.3719,-10.3645,0.2274,-0.7693,0.2204,0.1540
2880,-1.3336,-10.4435,0.2370,-0.7759,0.2204,0.1551
2888,-1.3288,-10.4315,0.1556,-0.7853,0.2134,0.1583
2895,-1.3910,-10.4651,0.1867,-0.7898,0.2086,0.1599
2904,-1.3767,-10.4818,0.1365,-0.7975,0.2041,0.1644
2912,-1.3886,-10.4818,0.1772,-0.8098,0.1988,0.1679
2920,-1.3910,-10.5297,0.1748,-0.8162,0.1927,0.1700
2928,-1.3024,-10.5058,0.2083,-0.8271,0.1871,0.1732
2935,-1.4006,-10.5465,0.1915,-0.8362,0.1841,0.1764
2944,-1.3791,-10.5153,0.1628,-0.8450,0.1772,0.1769
2952,-1.4222,-10.4818,0.2227,-0.8519,0.1692,0.1833
2960,-1.3695,-10.5249,0.1796,-0.8591,0.1628,0.1828
2968,-1.3934,-10.5058,0.1221,-0.8697,0.1577,0.1841
2976,-1.3934,-10.5728,0.1724,-0.8724,0.1516,0.1884
2983,-1.3695,-10.5632,0.1508,-0.8788,0.1458,0.1857
2992,-1.3982,-10.6111,0.1748,-0.8852,0.1383,0.1841
3000,-1.3623,-10.5560,0.2777,-0.8863,0.1311,0.1836
3008,-1.3408,-10.5824,0.2011,-0.8924,0.1268,0.1833
3016,-1.3384,-10.5465,0.2610,-0.8884,0.1258,0.1791
3023,-1.3695,-10.5273,0.1915,-0.8868,0.1207,0.1791
3032,-1.3431,-10.5512,0.1580,-0.8897,0.1172,0.1788
3040,-1.3216,-10.5704,0.3017,-0.8873,0.1132,0.1743
3048,-1.3455,-10.5728,0.1676,-0.8836,0.1140,0.1727
3056,-1.3791,-10.5800,0.1844,-0.8799,0.1098,0.1660
3063,-1.2977,-10.5273,0.2370,-0.8753,0.1127,0.1631
3072,-1.3599,-10.4698,0.2658,-0.8732,0.1106,0.1575
3080,-1.3431,-10.5034,0.2155,-0.8609,0.1114,0.1527
3088,-1.3240,-10.5105,0.2514,-0.8564,0.1106,0.1524
3096,-1.3144,-10.4818,0.2203,-0.8452,0.1119,0.1466
3104,-1.3599,-10.4435,0.3017,-0.8335,0.1130,0.1391
3111,-1.2905,-10.3908,0.3089,-0.8204,0.1148,0.1367
3120,-1.3503,-10.4124,0.2466,-0.8106,0.1170,0.1324
3128,-1.3120,-10.3501,0.2490,-0.7967,0.1178,0.1314
3136,-1.2402,-10.3741,0.2466,-0.7831,0.1175,0.1268
3144,-1.2617,-10.3908,0.2945,-0.7711,0.1175,0.1199
3151,-1.3503,-10.2999,0.2658,-0.7528,0.1194,0.1175
3160,-1.3072,-10.2424,0.1987,-0.7370,0.1215,0.1140
3168,-1.3408,-10.2759,0.2442,-0.7216,0.1207,0.1103
3176,-1.3001,-10.1969,0.2514,-0.7080,0.1220,0.1100
3184,-1.3192,-10.2376,0.2921,-0.6936,0.1228,0.1095
3192,-1.2929,-10.1682,0.2825,-0.6781,0.1223,0.1066
3200,-1.3072,-10.2376,0.2514,-0.6622,0.1223,0.1047
3208,-1.3120,-10.1562,0.2658,-0.6475,0.1196,0.1010
3216,-1.3024,-10.0844,0.2705,-0.6310,0.1234,0.1029
3224,-1.2306,-10.0916,0.2514,-0.6161,0.1244,0.1018
3232,-1.3096,-10.0389,0.2514,-0.6014,0.1266,0.1039
3239,-1.3048,-10.0365,0.3256,-0.5849,0.1210,0.1005
3248,-1.2977,-10.0197,0.3519,-0.5724,0.1204,0.0983
3256,-1.2306,-9.9718,0.2418,-0.5529,0.1183,0.0975
3264,-1.2761,-9.9527,0.1844,-0.5409,0.1188,0.0943
3272,-1.2594,-9.8928,0.2227,-0.5217,0.1199,0.0954
3280,-1.2546,-9.9407,0.2083,-0.5033,0.1172,0.0922
3288,-1.2617,-9.8881,0.2107,-0.4922,0.1146,0.0911
3296,-1.2426,-9.8761,0.2298,-0.4751,0.1159,0.0893
3304,-1.2043,-9.8569,0.2346,-0.4570,0.1132,0.0855
3312,-1.2498,-9.7851,0.2610,-0.4415,0.1119,0.0853
3320,-1.2953,-9.7923,0.2586,-0.4210,0.1106,0.0807
3328,-1.2234,-9.7779,0.1293,-0.4050,0.1074,0.0775
3336,-1.2977,-9.7659,0.2825,-0.3872,0.1085,0.0719
3344,-1.1827,-9.7205,0.2969,-0.3648,0.1079,0.0706
3352,-1.2594,-9.6750,0.2969,-0.3424,0.1050,0.0650
3360,-1.1995,-9.7109,0.2394,-0.3275,0.0994,0.0589
3368,-1.2043,-9.6486,0.3184,-0.3067,0.0951,0.0565
3376,-1.2546,-9.6367,0.2849,-0.2830,0.0941,0.0480
3384,-1.1875,-9.6798,0.2155,-0.2614,0.0954,0.0432
3392,-1.1923,-9.6726,0.2227,-0.2377,0.0895,0.0368
3400,-1.1492,-9.6055,0.2586,-0.2108,0.0850,0.0296
3408,-1.2043,-9.6103,0.2729,-0.1879,0.0829,0.0250
3416,-1.2186,-9.5912,0.3160,-0.1599,0.0762,0.0187
3424,-1.1875,-9.6367,0.1963,-0.1370,0.0746,0.0123
3432,-1.2354,-9.5457,0.2346,-0.1122,0.0709,0.0059
3440,-1.1708,-9.5936,0.2658,-0.0879,0.0650,-0.0016
3448,-1.1779,-9.5289,0.2538,-0.0608,0.0597,-0.0043
3457,-1.1636,-9.5553,0.2873,-0.0362,0.0522,-0.0112
3464,-1.1803,-9.5888,0.2777,-0.0077,0.0453,-0.0149
3472,-1.2594,-9.5385,0.3352,0.0197,0.0384,-0.0205
3480,-1.1899,-9.5217,0.2466,0.0469,0.0333,-0.0280
3488,-1.2019,-9.5241,0.2777,0.0725,0.0240,-0.0282
3496,-1.2163,-9.5864,0.2897,0.0967,0.0152,-0.0317
3504,-1.2330,-9.5864,0.2825,0.1226,0.0043,-0.0357
3512,-1.2402,-9.5840,0.2298,0.1460,-0.0027,-0.0354
3520,-1.2186,-9.5265,0.3208,0.1719,-0.0131,-0.0378
3528,-1.2258,-9.6438,0.2394,0.1958,-0.0232,-0.0421
3536,-1.2498,-9.6391,0.1915,0.2193,-0.0333,-0.0405
3545,-1.2258,-9.5577,0.2801,0.2427,-0.0426,-0.0450
3552,-1.2570,-9.5936,0.3136,0.2646,-0.0517,-0.0458
3560,-1.2330,-9.6127,0.2466,0.2920,-0.0640,-0.0453
3568,-1.2546,-9.6702,0.1652,0.3094,-0.0746,-0.0466
3576,-1.1779,-9.6702,0.2801,0.3304,-0.0826,-0.0480
3585,-1.2929,-9.6869,0.1676,0.3544,-0.0925,-0.0464
3592,-1.2881,-9.7348,0.2777,0.3738,-0.1039,-0.0498
3600,-1.2905,-9.7540,0.2251,0.3944,-0.1095,-0.0512
3608,-1.2426,-9.7372,0.2753,0.4128,-0.1210,-0.0512
3616,-1.1995,-9.7851,0.2442,0.4357,-0.1284,-0.0541
3624,-1.2402,-9.8330,0.1197,0.4517,-0.1380,-0.0546
3633,-1.1756,-9.8904,0.2873,0.4738,-0.1476,-0.0549
3640,-1.2594,-9.8378,0.2083,0.4895,-0.1532,-0.0568
3648,-1.2546,-9.8306,0.1460,0.5097,-0.1620,-0.0600
3656,-1.2546,-9.9718,0.1939,0.5231,-0.1729,-0.0610
3664,-1.2641,-9.9096,0.1197,0.5375,-0.1737,-0.0637
3673,-1.2234,-9.9814,0.2155,0.5537,-0.1801,-0.0682
3680,-1.2713,-9.9862,0.2322,0.5705,-0.1857,-0.0714
3688,-1.2546,-10.0030,0.2107,0.5833,-0.1889,-0.0743
3696,-1.2306,-9.9575,0.1915,0.5990,-0.1919,-0.0786
3704,-1.2354,-9.9766,0.1796,0.6110,-0.1943,-0.0823
3713,-1.2809,-10.1370,0.1820,0.6211,-0.1924,-0.0871
3721,-1.3360,-10.1059,0.2610,0.6371,-0.1948,-0.0877
3728,-1.2881,-10.1418,0.1197,0.6515,-0.1961,-0.0925
3736,-1.3312,-10.1538,0.2179,0.6632,-0.1956,-0.0967
3744,-1.2761,-10.2424,0.2035,0.6718,-0.1929,-0.0986
3752,-1.2833,-10.1873,0.1413,0.6851,-0.1974,-0.1034
3761,-1.3168,-10.2017,0.1413,0.6995,-0.2006,-0.1055
3768,-1.3431,-10.2376,0.0934,0.7075,-0.1988,-0.1082
3776,-1.3312,-10.2711,0.2682,0.7200,-0.1932,-0.1127
3784,-1.3144,-10.2663,0.1293,0.7330,-0.1937,-0.1162
3792,-1.3024,-10.3070,0.1269,0.7410,-0.1943,-0.1151
3801,-1.3623,-10.3406,0.0934,0.7496,-0.1956,-0.1196
3808,-1.3647,-10.3501,0.1844,0.7613,-0.1932,-0.1191
3816,-1.3958,-10.4291,0.1437,0.7735,-0.1969,-0.1204
3824,-1.3024,-10.3884,0.1915,0.7786,-0.1919,-0.1199
3832,-1.3384,-10.4244,0.1772,0.7866,-0.1887,-0.1234
3841,-1.3336,-10.3693,0.1245,0.7951,-0.1889,-0.1242
3849,-1.3408,-10.4004,0.1341,0.7999,-0.1921,-0.1231
3856,-1.3886,-10.4244,0.2059,0.8106,-0.1900,-0.1194
3864,-1.3791,-10.4770,0.1317,0.8183,-0.1895,-0.1207
3872,-1.4054,-10.4603,0.1604,0.8252,-0.1903,-0.1196
3880,-1.3144,-10.4938,0.1173,0.8263,-0.1881,-0.1207
3889,-1.3623,-10.4770,0.1628,0.8330,-0.1927,-0.1172
3896,-1.3695,-10.5273,0.2035,0.8380,-0.1881,-0.1138
3904,-1.3647,-10.5153,0.0335,0.8452,-0.1911,-0.1114
3912,-1.4150,-10.4555,0.0886,0.8468,-0.1844,-0.1138
3920,-1.4102,-10.5225,0.1006,0.8487,-0.1871,-0.1098
3929,-1.3360,-10.4842,0.0934,0.8495,-0.1857,-0.1082
3937,-1.3647,-10.5369,0.1293,0.8482,-0.1833,-0.1103
3944,-1.3743,-10.5034,0.1269,0.8479,-0.1849,-0.1055
3952,-1.3958,-10.4603,0.1556,0.8474,-0.1831,-0.1087
3960,-1.4222,-10.5225,0.1125,0.8434,-0.1825,-0.1053
3969,-1.3886,-10.4674,0.1101,0.8404,-0.1753,-0.1055
3977,-1.3120,-10.5129,0.0503,0.8386,-0.1804,-0.1026
3984,-1.3599,-10.4866,0.0694,0.8319,-0.1748,-0.0991
3992,-1.4365,-10.4986,0.0718,0.8279,-0.1748,-0.1002
4000,-1.3264,-10.4244,0.0311,0.8220,-0.1716,-0.0994
4008,-1.3551,-10.4986,0.0910,0.8170,-0.1708,-0.1005
4017,-1.3240,-10.4076,0.0694,0.8079,-0.1687,-0.0943
4025,-1.3192,-10.4291,0.0910,0.8018,-0.1665,-0.0981
4032,-1.3671,-10.4100,0.0335,0.7935,-0.1617,-0.0999
4040,-1.3767,-10.4028,0.0599,0.7855,-0.1617,-0.0965
4048,-1.3647,-10.3310,0.0144,0.7765,-0.1625,-0.0954
4057,-1.2977,-10.3765,0.0287,0.7701,-0.1572,-0.0983
4065,-1.3479,-10.3477,0.0287,0.7586,-0.1567,-0.0943
4072,-1.2402,-10.3430,0.0431,0.7458,-0.1569,-0.0938
4080,-1.3767,-10.2807,0.1724,0.7362,-0.1498,-0.0935
4088,-1.3431,-10.2855,0.0287,0.7253,-0.1487,-0.0909
4097,-1.3575,-10.2472,0.0958,0.7107,-0.1460,-0.0895
4105,-1.3360,-10.2376,0.0479,0.7024,-0.1455,-0.0882
4113,-1.4006,-10.2089,0.0263,0.6883,-0.1420,-0.0847
4120,-1.3408,-10.2520,0.1221,0.6781,-0.1404,-0.0815
4128,-1.3384,-10.2113,0.0718,0.6654,-0.1391,-0.0751
4136,-1.3815,-10.1778,0.0431,0.6483,-0.1364,-0.0743
4145,-1.3336,-10.1682,0.1030,0.6390,-0.1367,-0.0733
4153,-1.3072,-10.0844,0.0192,0.6249,-0.1343,-0.0701
4160,-1.3192,-10.1442,0.0120,0.6153,-0.1324,-0.0634
4168,-1.3288,-10.0868,-0.0144,0.6014,-0.1327,-0.0597
4176,-1.3527,-10.0389,0.0311,0.5846,-0.1282,-0.0549
4185,-1.2881,-10.0149,0.0311,0.5718,-0.1287,-0.0506
4193,-1.2617,-9.9982,0.0215,0.5537,-0.1274,-0.0472
4201,-1.2641,-9.9718,0.0479,0.5452,-0.1271,-0.0410
4208,-1.3168,-9.9647,0.0215,0.5271,-0.1239,-0.0381
4216,-1.2737,-9.9048,0.0120,0.5081,-0.1210,-0.0320
4225,-1.3503,-9.9120,0.0646,0.4908,-0.1202,-0.0248
4233,-1.3144,-9.8952,-0.0048,0.4756,-0.1156,-0.0216
4241,-1.2977,-9.8833,0.1125,0.4565,-0.1154,-0.0157
4248,-1.2474,-9.8378,-0.0311,0.4410,-0.1090,-0.0125
4256,-1.3120,-9.8426,0.0359,0.4239,-0.1111,-0.0109
4264,-1.2905,-9.7516,-0.0287,0.4061,-0.1018,-0.0077
4273,-1.2378,-9.8090,0.0742,0.3901,-0.1066,-0.0032
4281,-1.2977,-9.7276,0.1077,0.3736,-0.1002,-0.0021
4289,-1.2977,-9.7276,0.0958,0.3533,-0.0973,0.0045
4296,-1.2402,-9.7516,-0.0168,0.3336,-0.0906,0.0091
4304,-1.2737,-9.6630,0.0359,0.3152,-0.0877,0.0091
4313,-1.3120,-9.7013,-0.0168,0.2931,-0.0879,0.0133
4321,-1.2474,-9.6822,-0.0048,0.2729,-0.0794,0.0165
4329,-1.2809,-9.6486,0.0239,0.2499,-0.0743,0.0187
4336,-1.2594,-9.6391,0.0431,0.2294,-0.0751,0.0245
4344,-1.2881,-9.6199,-0.0670,0.2060,-0.0640,0.0285
4353,-1.2450,-9.5768,-0.0910,0.1871,-0.0632,0.0301
4361,-1.2019,-9.6391,0.0072,0.1625,-0.0557,0.0333
4369,-1.2689,-9.5600,-0.0168,0.1420,-0.0504,0.0376
4377,-1.2474,-9.5768,0.0168,0.1196,-0.0450,0.0429
4384,-1.2617,-9.6223,-0.0239,0.0973,-0.0365,0.0432
4392,-1.3001,-9.5792,-0.0072,0.0759,-0.0328,0.0493
4401,-1.2474,-9.5840,-0.0215,0.0493,-0.0274,0.0514
4409,-1.2426,-9.5720,-0.0622,0.0258,-0.0221,0.0586
4417,-1.2210,-9.6031,0.0742,0.0043,-0.0157,0.0584
4424,-1.2234,-9.5385,0.0455,-0.0176,-0.0099,0.0648
4432,-1.2498,-9.5912,0.0359,-0.0394,-0.0037,0.0663
4441,-1.3048,-9.5816,-0.0670,-0.0618,0.0029,0.0687
4449,-1.2402,-9.6079,0.0287,-0.0794,0.0099,0.0754
4457,-1.2737,-9.5481,-0.0311,-0.1026,0.0141,0.0794
4464,-1.1971,-9.6175,-0.0263,-0.1276,0.0213,0.0858
4472,-1.2258,-9.5936,0.0934,-0.1476,0.0301,0.0906
4481,-1.3192,-9.6031,-0.0599,-0.1679,0.0328,0.0983
4489,-1.2689,-9.6558,-0.0215,-0.1892,0.0432,0.0999
4497,-1.2234,-9.6534,-0.0168,-0.2121,0.0506,0.1050
4505,-1.2546,-9.6582,0.0551,-0.2310,0.0546,0.1071
4512,-1.2474,-9.6367,0.1077,-0.2513,0.0618,0.1175
4520,-1.2713,-9.6702,-0.0168,-0.2705,0.0701,0.1186
4529,-1.2163,-9.6175,0.0694,-0.2899,0.0735,0.1255
4537,-1.3001,-9.7205,0.0431,-0.3094,0.0826,0.1311
4545,-1.2594,-9.7013,-0.0096,-0.3259,0.0895,0.1303
4552,-1.2689,-9.7300,0.0048,-0.3467,0.0973,0.1378
4560,-1.2737,-9.7707,0.0311,-0.3683,0.1029,0.1394
4569,-1.3336,-9.8162,0.0694,-0.3856,0.1124,0.1428
4577,-1.3384,-9.8162,0.1101,-0.4056,0.1218,0.1428
4585,-1.2713,-9.8378,0.1006,-0.4229,0.1268,0.1484
4593,-1.2282,-9.7803,0.0479,-0.4410,0.1311,0.1506
4600,-1.2785,-9.8665,0.0192,-0.4567,0.1394,0.1556
4609,-1.2713,-9.8857,0.0551,-0.4759,0.1492,0.1524
4617,-1.2761,-9.9072,0.0503,-0.4962,0.1551,0.1583
4625,-1.2953,-9.8569,0.0934,-0.5100,0.1593,0.1564
4633,-1.2665,-9.9407,0.0910,-0.5236,0.1668,0.1604
4640,-1.2977,-9.9311,0.0455,-0.5372,0.1721,0.1591
4648,-1.2761,-9.9766,0.1221,-0.5505,0.1740,0.1623
4657,-1.3216,-10.0126,0.1149,-0.5622,0.1769,0.1583
4665,-1.3120,-9.9766,0.0670,-0.5737,0.1849,0.1591
4673,-1.2785,-10.0628,0.2107,-0.5852,0.1905,0.1599
4681,-1.2474,-10.1251,0.0168,-0.5969,0.1956,0.1591
4688,-1.2689,-10.1418,0.1724,-0.6094,0.1945,0.1575
4697,-1.2977,-10.1490,0.0527,-0.6177,0.1980,0.1596
4705,-1.3575,-10.1394,0.1125,-0.6323,0.2017,0.1609
4713,-1.2953,-10.1418,0.0934,-0.6432,0.2033,0.1583
4721,-1.3144,-10.1969,0.2227,-0.6523,0.2052,0.1580
4728,-1.3431,-10.2280,0.1077,-0.6630,0.2084,0.1580
4737,-1.3144,-10.2304,0.1006,-0.6728,0.2070,0.1604
4745,-1.3455,-10.2592,0.1437,-0.6811,0.2073,0.1569
4753,-1.3264,-10.2663,0.0622,-0.6923,0.2078,0.1593
4761,-1.3719,-10.3046,0.1628,-0.7016,0.2038,0.1583
4769,-1.3072,-10.2663,0.1197,-0.7088,0.2004,0.1601
4776,-1.3144,-10.3286,0.2274,-0.7168,0.2001,0.1620
4785,-1.3623,-10.3453,0.1317,-0.7272,0.1980,0.1636
4793,-1.3503,-10.3118,0.1724,-0.7357,0.1958,0.1620
4801,-1.4102,-10.3453,0.1580,-0.7405,0.1921,0.1655
4809,-1.3096,-10.3262,0.1556,-0.7474,0.1892,0.1641
4816,-1.3336,-10.4004,0.1508,-0.7530,0.1839,0.1644
4825,-1.3767,-10.4196,0.1580,-0.7605,0.1799,0.1668
4833,-1.3910,-10.3980,0.1484,-0.7671,0.1753,0.1636
4841,-1.3719,-10.4674,0.1772,-0.7733,0.1713,0.1649
4849,-1.3384,-10.4291,0.2322,-0.7791,0.1687,0.1625
4857,-1.3455,-10.4339,0.1820,-0.7845,0.1615,0.1655
4865,-1.3001,-10.4411,0.2035,-0.7901,0.1567,0.1671
4873,-1.3216,-10.4052,0.1628,-0.7925,0.1559,0.1684
4881,-1.4174,-10.4746,0.1676,-0.7938,0.1460,0.1671
4889,-1.3216,-10.4890,0.1556,-0.8026,0.1423,0.1665
4897,-1.3168,-10.4411,0.1891,-0.8029,0.1372,0.1663
4904,-1.3216,-10.4435,0.1365,-0.8021,0.1340,0.1641
4913,-1.3384,-10.4674,0.2346,-0.8037,0.1290,0.1644
4921,-1.3455,-10.4842,0.2442,-0.8039,0.1244,0.1615
4929,-1.4054,-10.4651,0.1748,-0.7981,0.1194,0.1601
4937,-1.3120,-10.4507,0.1844,-0.8002,0.1180,0.1596
4945,-1.3072,-10.4052,0.2873,-0.7973,0.1138,0.1585
4953,-1.3048,-10.5177,0.1844,-0.7909,0.1124,0.1532
4961,-1.3072,-10.3453,0.2538,-0.7898,0.1098,0.1522
4969,-1.3408,-10.4244,0.2490,-0.7829,0.1087,0.1500
4977,-1.3216,-10.3693,0.1915,-0.7767,0.1042,0.1468
4985,-1.3312,-10.3693,0.1293,-0.7677,0.1029,0.1423
4993,-1.3096,-10.3501,0.2490,-0.7658,0.1039,0.1404
5001,-1.3264,-10.3956,0.2251,-0.7554,0.0983,0.1372
5009,-1.3360,-10.3430,0.2418,-0.7512,0.0994,0.1348
5017,-1.3719,-10.3046,0.3519,-0.7389,0.0978,0.1298
5025,-1.3455,-10.2975,0.2610,-0.7317,0.0981,0.1276
5033,-1.3288,-10.2639,0.2346,-0.7200,0.0970,0.1263
5041,-1.3168,-10.3118,0.2945,-0.7091,0.0994,0.1215
5049,-1.2641,-10.2496,0.1987,-0.6992,0.0957,0.1170
5057,-1.3168,-10.2376,0.2179,-0.6883,0.0983,0.1146
5065,-1.2617,-10.2065,0.1700,-0.6749,0.1002,0.1148
5073,-1.2809,-10.1754,0.3160,-0.6611,0.0999,0.1138
5081,-1.2833,-10.1969,0.2562,-0.6494,0.1010,0.1090
5089,-1.2713,-10.1179,0.1891,-0.6360,0.1047,0.1100
5097,-1.2785,-10.1011,0.2849,-0.6249,0.1013,0.1026
5105,-1.3024,-10.1059,0.2610,-0.6115,0.1037,0.1013
5113,-1.2737,-10.1203,0.1963,-0.5971,0.1026,0.1007
5122,-1.3001,-10.0437,0.2394,-0.5846,0.1061,0.0975
5129,-1.2881,-10.0700,0.2945,-0.5708,0.1077,0.0954
5137,-1.3024,-10.0269,0.1652,-0.5556,0.1013,0.0933
5145,-1.3168,-9.9503,0.2322,-0.5428,0.1079,0.0903
5153,-1.2306,-9.9671,0.2490,-0.5257,0.1092,0.0855
5161,-1.3192,-9.9575,0.2873,-0.5129,0.1079,0.0863
5169,-1.2354,-9.9240,0.2538,-0.4938,0.1061,0.0837
5177,-1.2474,-9.8952,0.3280,-0.4796,0.1100,0.0807
5185,-1.2186,-9.9264,0.2682,-0.4610,0.1095,0.0789
5193,-1.2546,-9.9551,0.2059,-0.4477,0.1055,0.0770
5201,-1.3001,-9.8402,0.3041,-0.4306,0.1079,0.0743
5209,-1.2450,-9.8066,0.2370,-0.4128,0.1010,0.0717
5217,-1.2402,-9.8186,0.2179,-0.3949,0.1047,0.0671
5225,-1.2258,-9.8043,0.2346,-0.3730,0.1026,0.0600
5233,-1.2617,-9.7085,0.2203,-0.3597,0.0989,0.0616
5241,-1.2522,-9.7085,0.2394,-0.3400,0.1029,0.0581
5250,-1.2282,-9.7923,0.2466,-0.3192,0.0975,0.0509
5257,-1.2139,-9.6893,0.2993,-0.3019,0.0970,0.0456
5265,-1.2378,-9.6893,0.2322,-0.2830,0.0930,0.0440
5273,-1.2163,-9.7683,0.2825,-0.2638,0.0893,0.0368
5281,-1.1995,-9.6367,0.2394,-0.2401,0.0898,0.0320
5289,-1.1756,-9.6750,0.2059,-0.2177,0.0837,0.0314
5297,-1.2091,-9.6462,0.2945,-0.1974,0.0837,0.0261
5305,-1.2785,-9.6702,0.2059,-0.1769,0.0797,0.0200
5313,-1.2546,-9.6534,0.2514,-0.1532,0.0738,0.0149
5321,-1.2019,-9.6869,0.2251,-0.1303,0.0693,0.0112
5329,-1.2570,-9.5864,0.2035,-0.1095,0.0640,0.0059
5338,-1.1756,-9.6343,0.2897,-0.0874,0.0594,0.0048
5345,-1.2186,-9.6175,0.2107,-0.0632,0.0557,-0.0027
5353,-1.1875,-9.5624,0.2729,-0.0437,0.0498,-0.0083
5361,-1.2426,-9.5840,0.3184,-0.0211,0.0421,-0.0107
5369,-1.2067,-9.6103,0.2466,0.0053,0.0381,-0.0133
5378,-1.2043,-9.6151,0.2538,0.0269,0.0272,-0.0155
5385,-1.2378,-9.6343,0.2610,0.0517,0.0197,-0.0245
5393,-1.2306,-9.6127,0.2610,0.0727,0.0125,-0.0245
5401,-1.2498,-9.5936,0.2873,0.0906,0.0056,-0.0258
5409,-1.2306,-9.6367,0.2849,0.1148,-0.0008,-0.0328
5417,-1.2043,-9.6798,0.2155,0.1346,-0.0093,-0.0338
5426,-1.2330,-9.6343,0.1963,0.1551,-0.0173,-0.0368
5433,-1.2115,-9.5816,0.2466,0.1777,-0.0245,-0.0384
5441,-1.2330,-9.6151,0.2370,0.1982,-0.0346,-0.0394
5449,-1.2139,-9.6486,0.2227,0.2166,-0.0434,-0.0448
5457,-1.3336,-9.6869,0.2011,0.2374,-0.0530,-0.0466
5466,-1.2186,-9.6582,0.2274,0.2587,-0.0621,-0.0485
5473,-1.1995,-9.6869,0.1676,0.2761,-0.0717,-0.0506
5481,-1.2809,-9.7205,0.2562,0.2979,-0.0778,-0.0504
5489,-1.1899,-9.7133,0.2610,0.3171,-0.0831,-0.0554
5497,-1.2617,-9.7348,0.2873,0.3376,-0.0975,-0.0568
5506,-1.2474,-9.7659,0.1915,0.3603,-0.1007,-0.0557
5514,-1.2617,-9.7803,0.2370,0.3816,-0.1108,-0.0589
5521,-1.2234,-9.7420,0.3232,0.3992,-0.1172,-0.0602
5529,-1.2330,-9.7659,0.1939,0.4189,-0.1258,-0.0613
5537,-1.3384,-9.8665,0.1652,0.4338,-0.1354,-0.0655
5545,-1.2833,-9.8761,0.1006,0.4519,-0.1436,-0.0671
5554,-1.2737,-9.8474,0.2179,0.4679,-0.1495,-0.0687
5561,-1.2594,-9.9072,0.1891,0.4855,-0.1527,-0.0690
5569,-1.2905,-9.9407,0.1844,0.4978,-0.1588,-0.0735
5577,-1.2617,-9.9623,0.2322,0.5159,-0.1631,-0.0738
5585,-1.2498,-10.0173,0.2131,0.5295,-0.1684,-0.0781
5594,-1.2809,-9.9335,0.1293,0.5428,-0.1703,-0.0775
5602,-1.2785,-10.0269,0.2011,0.5537,-0.1732,-0.0829
5609,-1.2953,-9.9718,0.1173,0.5638,-0.1756,-0.0850
5617,-1.2761,-9.9886,0.1532,0.5758,-0.1761,-0.0853
5625,-1.2617,-10.0724,0.1652,0.5907,-0.1783,-0.0874
5634,-1.3120,-10.1155,0.2251,0.6001,-0.1791,-0.0911
5642,-1.3072,-10.0868,0.1508,0.6102,-0.1809,-0.0922
5649,-1.2641,-10.1394,0.1963,0.6235,-0.1841,-0.0951
5657,-1.2641,-10.1586,0.2322,0.6307,-0.1815,-0.0994
5665,-1.2977,-10.1610,0.2227,0.6430,-0.1852,-0.0997
5673,-1.2665,-10.2424,0.1556,0.6536,-0.1825,-0.1005
5682,-1.3001,-10.1801,0.1604,0.6630,-0.1817,-0.1037
5690,-1.3168,-10.1945,0.0934,0.6686,-0.1825,-0.1069
5697,-1.3312,-10.2400,0.1844,0.6797,-0.1839,-0.1061
5705,-1.2570,-10.2328,0.1030,0.6867,-0.1780,-0.1092
5713,-1.3240,-10.3382,0.2179,0.6963,-0.1815,-0.1085
5722,-1.3264,-10.2424,0.0934,0.7053,-0.1769,-0.1098
5730,-1.3168,-10.2855,0.1844,0.7109,-0.1751,-0.1082
5737,-1.3072,-10.4004,0.2059,0.7128,-0.1759,-0.1098
5745,-1.2785,-10.3382,0.1508,0.7245,-0.1743,-0.1111
5753,-1.3575,-10.3741,0.1676,0.7301,-0.1732,-0.1146
5762,-1.3647,-10.3837,0.2155,0.7360,-0.1724,-0.1108
5770,-1.4102,-10.3717,0.1772,0.7402,-0.1700,-0.1085
5777,-1.3264,-10.3669,0.1628,0.7493,-0.1695,-0.1108
5785,-1.3575,-10.4315,0.1844,0.7562,-0.1692,-0.1108
5793,-1.3216,-10.3669,0.1413,0.7586,-0.1692,-0.1066
5801,-1.3743,-10.3501,0.1365,0.7642,-0.1679,-0.1074
5810,-1.3455,-10.3501,0.1772,0.7674,-0.1692,-0.1074
5818,-1.3551,-10.4627,0.0958,0.7701,-0.1639,-0.1055
5825,-1.3384,-10.4052,0.1149,0.7709,-0.1644,-0.1050
5833,-1.3695,-10.4244,0.1221,0.7741,-0.1607,-0.1031
5841,-1.3168,-10.4124,0.0670,0.7733,-0.1583,-0.1053
5850,-1.3671,-10.4267,0.1269,0.7773,-0.1617,-0.1026
5858,-1.3982,-10.3860,0.1604,0.7759,-0.1569,-0.1013
5865,-1.3719,-10.3884,0.0646,0.7738,-0.1585,-0.1010
5873,-1.3048,-10.4028,0.0455,0.7698,-0.1567,-0.0999
5881,-1.3599,-10.3741,-0.0072,0.7698,-0.1548,-0.0994
5890,-1.3312,-10.4124,0.1149,0.7642,-0.1519,-0.0959
5898,-1.3384,-10.3717,0.0934,0.7608,-0.1537,-0.0970
5906,-1.3767,-10.3980,0.1077,0.7557,-0.1508,-0.0938
5913,-1.3240,-10.3166,0.0239,0.7488,-0.1482,-0.0917
5921,-1.3527,-10.3980,0.0431,0.7448,-0.1498,-0.0887
5929,-1.3024,-10.3238,0.0503,0.7368,-0.1458,-0.0895
5938,-1.3647,-10.3118,0.1053,0.7304,-0.1474,-0.0895
5946,-1.3982,-10.3070,0.1269,0.7221,-0.1428,-0.0879
5953,-1.3479,-10.2975,0.1053,0.7139,-0.1431,-0.0831
5961,-1.3575,-10.2568,0.0862,0.7045,-0.1452,-0.0834
5969,-1.2641,-10.2975,0.0670,0.6963,-0.1410,-0.0834
5978,-1.2905,-10.2472,0.0431,0.6832,-0.1378,-0.0805
5986,-1.3838,-10.2951,0.0982,0.6755,-0.1383,-0.0754
5994,-1.3072,-10.2328,0.0886,0.6606,-0.1372,-0.0762
6001,-1.4102,-10.2376,0.0311,0.6534,-0.1362,-0.0725
6009,-1.3384,-10.1394,0.1604,0.6414,-0.1338,-0.0685
6018,-1.3384,-10.1969,0.0120,0.6275,-0.1322,-0.0655
6026,-1.3886,-10.1203,0.0311,0.6190,-0.1308,-0.0629
6034,-1.3479,-10.1610,-0.0335,0.6038,-0.1290,-0.0600
6041,-1.2953,-10.1227,0.0215,0.5931,-0.1316,-0.0557
6049,-1.3072,-10.0533,0.0670,0.5769,-0.1271,-0.0546
6057,-1.3001,-10.0604,0.1293,0.5633,-0.1274,-0.0509
6066,-1.3288,-10.0341,0.0527,0.5548,-0.1239,-0.0453
6074,-1.2929,-10.0221,0.0096,0.5377,-0.1244,-0.0466
6082,-1.3671,-9.9695,0.0766,0.5276,-0.1199,-0.0408
6089,-1.2210,-9.9623,0.0958,0.5151,-0.1156,-0.0376
6097,-1.2713,-9.9072,0.0383,0.4996,-0.1178,-0.0314
6106,-1.3144,-9.9264,0.0335,0.4892,-0.1175,-0.0301
6114,-1.3192,-9.9407,0.1125,0.4719,-0.1170,-0.0282
6122,-1.3216,-9.9000,-0.0503,0.4615,-0.1116,-0.0248
6129,-1.2833,-9.8833,0.0694,0.4426,-0.1116,-0.0221
6137,-1.3455,-9.8952,0.0766,0.4301,-0.1090,-0.0152
6146,-1.2641,-9.8545,0.0263,0.4117,-0.1053,-0.0099
6154,-1.3312,-9.8881,0.0287,0.4000,-0.1055,-0.0053
6162,-1.3384,-9.8497,0.0431,0.3786,-0.1018,-0.0005
6170,-1.3048,-9.7372,0.0120,0.3619,-0.0991,0.0035
6177,-1.2785,-9.7779,-0.0479,0.3443,-0.0927,0.0051
6185,-1.2953,-9.7971,-0.0718,0.3280,-0.0895,0.0099
6194,-1.2617,-9.7109,0.0359,0.3139,-0.0853,0.0112
6202,-1.2641,-9.7157,0.0168,0.2979,-0.0858,0.0171
6210,-1.3072,-9.6893,0.0144,0.2777,-0.0773,0.0195
6217,-1.2306,-9.7181,-0.0335,0.2627,-0.0775,0.0195
6225,-1.2641,-9.7181,0.0000,0.2459,-0.0719,0.0213
6234,-1.2953,-9.7157,0.0359,0.2233,-0.0645,0.0272
6242,-1.2953,-9.6103,0.0072,0.2041,-0.0613,0.0298
6250,-1.2594,-9.6414,0.0215,0.1876,-0.0586,0.0328
6258,-1.1803,-9.6319,0.0503,0.1665,-0.0530,0.0368
6265,-1.2713,-9.6702,-0.0072,0.1460,-0.0445,0.0413
6274,-1.1732,-9.6630,-0.0311,0.1247,-0.0445,0.0442
6282,-1.2546,-9.6055,-0.1173,0.1021,-0.0376,0.0517
6290,-1.2426,-9.5960,0.0048,0.0845,-0.0296,0.0557
6298,-1.2522,-9.6510,0.0239,0.0648,-0.0261,0.0565
6305,-1.2522,-9.6079,0.0335,0.0408,-0.0234,0.0618
6313,-1.2881,-9.6031,-0.0072,0.0203,-0.0152,0.0669
6322,-1.2306,-9.6199,0.0000,0.0000,-0.0117,0.0685
6330,-1.2258,-9.6223,0.0934,-0.0237,-0.0077,0.0738
6338,-1.2186,-9.6295,0.0144,-0.0405,0.0000,0.0789
6346,-1.2522,-9.6462,0.0168,-0.0613,0.0072,0.0799
6353,-1.2354,-9.6319,-0.0024,-0.0834,0.0131,0.0831
6362,-1.2617,-9.5888,0.0431,-0.0991,0.0200,0.0882
6370,-1.1827,-9.6414,0.0790,-0.1194,0.0234,0.0933
6378,-1.2426,-9.6462,-0.0072,-0.1396,0.0274,0.0954
6386,-1.3336,-9.6103,-0.0479,-0.1601,0.0317,0.0989
6393,-1.2953,-9.6343,0.0311,-0.1785,0.0432,0.1069
6402,-1.2905,-9.6534,0.0551,-0.1982,0.0496,0.1103
6410,-1.2594,-9.6414,0.0287,-0.2156,0.0554,0.1156
6418,-1.2785,-9.7492,0.0551,-0.2353,0.0605,0.1183
6426,-1.2833,-9.7085,0.0646,-0.2550,0.0685,0.1226
6434,-1.3120,-9.7492,0.0670,-0.2726,0.0727,0.1276
6441,-1.3072,-9.7588,-0.0168,-0.2920,0.0807,0.1303
6450,-1.2761,-9.7564,0.0622,-0.3099,0.0855,0.1335
6458,-1.2498,-9.7540,0.0646,-0.3259,0.0925,0.1359
6466,-1.2019,-9.7396,0.0838,-0.3424,0.1026,0.1386
6474,-1.2450,-9.8019,-0.0455,-0.3645,0.1085,0.1423
6481,-1.2498,-9.7851,-0.0096,-0.3784,0.1130,0.1423
6490,-1.2833,-9.8210,0.0527,-0.3981,0.1212,0.1476
6498,-1.2809,-9.8593,0.0479,-0.4114,0.1292,0.1476
6506,-1.2498,-9.8330,0.0982,-0.4282,0.1324,0.1463
6514,-1.2498,-9.9240,0.0718,-0.4423,0.1404,0.1484
6521,-1.2761,-9.9479,0.0790,-0.4575,0.1492,0.1492
6530,-1.3264,-9.9407,0.1460,-0.4716,0.1524,0.1498
6538,-1.2522,-9.9527,0.0407,-0.4852,0.1583,0.1500
6546,-1.2594,-9.9814,0.1030,-0.4954,0.1628,0.1529
6554,-1.3288,-9.9814,0.1053,-0.5071,0.1668,0.1516
6562,-1.3096,-10.0126,0.1245,-0.5204,0.1724,0.1535
6569,-1.2953,-9.9647,0.1365,-0.5316,0.1761,0.1529
6578,-1.3192,-10.0437,0.2466,-0.5401,0.1791,0.1548
6586,-1.2833,-10.0772,0.0958,-0.5521,0.1817,0.1543
6594,-1.2761,-10.0820,0.0575,-0.5614,0.1831,0.1548
6602,-1.2833,-10.1155,0.2083,-0.5708,0.1873,0.1537
6609,-1.2689,-10.0628,0.0599,-0.5817,0.1908,0.1540
6618,-1.3001,-10.1562,0.1341,-0.5902,0.1916,0.1508
6626,-1.3192,-10.1754,0.1676,-0.6011,0.1903,0.1553
6634,-1.3072,-10.1849,0.1939,-0.6083,0.1911,0.1545
6642,-1.3216,-10.1754,0.0814,-0.6161,0.1887,0.1553
6650,-1.3168,-10.1682,0.2107,-0.6278,0.1857,0.1551
6658,-1.2785,-10.1801,0.1724,-0.6326,0.1887,0.1556
6666,-1.2641,-10.2304,0.1676,-0.6422,0.1857,0.1564
6674,-1.2570,-10.2304,0.1389,-0.6496,0.1815,0.1569
6682,-1.3479,-10.2448,0.1748,-0.6563,0.1785,0.1572
6690,-1.3503,-10.2615,0.1460,-0.6640,0.1772,0.1609
6697,-1.3815,-10.2424,0.1413,-0.6715,0.1764,0.1609
6706,-1.3743,-10.2903,0.1772,-0.6789,0.1673,0.1615
6714,-1.3360,-10.2687,0.1772,-0.6875,0.1652,0.1596
6722,-1.3288,-10.2879,0.1221,-0.6880,0.1633,0.1591
6730,-1.3527,-10.3046,0.1437,-0.6995,0.1585,0.1591
6738,-1.3024,-10.2999,0.1652,-0.7045,0.1514,0.1615
6746,-1.3168,-10.2999,0.1556,-0.7115,0.1503,0.1647
6754,-1.3623,-10.3430,0.2538,-0.7168,0.1420,0.1620
6762,-1.3024,-10.3597,0.1652,-0.7202,0.1407,0.1601
6770,-1.3312,-10.3382,0.1508,-0.7232,0.1378,0.1567
6778,-1.3647,-10.3501,0.2179,-0.7301,0.1327,0.1596
6786,-1.3360,-10.3501,0.1508,-0.7320,0.1303,0.1569
6794,-1.3072,-10.3908,0.2131,-0.7328,0.1223,0.1564
6802,-1.3312,-10.4124,0.2203,-0.7370,0.1207,0.1535
6810,-1.3336,-10.3621,0.2514,-0.7349,0.1196,0.1543
6818,-1.3312,-10.3621,0.2179,-0.7344,0.1180,0.1506
6827,-1.3479,-10.3477,0.2274,-0.7370,0.1103,0.1495
6834,-1.3024,-10.3573,0.2251,-0.7341,0.1106,0.1468
6842,-1.3455,-10.2999,0.2346,-0.7330,0.1095,0.1474
6850,-1.3431,-10.3094,0.2394,-0.7293,0.1061,0.1447
6858,-1.3695,-10.3406,0.2921,-0.7242,0.1058,0.1428
6866,-1.3431,-10.3477,0.1580,-0.7229,0.1039,0.1380
6874,-1.3168,-10.3190,0.2634,-0.7144,0.1031,0.1362
6882,-1.3551,-10.2831,0.1844,-0.7093,0.1034,0.1348
6890,-1.3455,-10.2520,0.2442,-0.7016,0.0997,0.1316
6898,-1.3743,-10.3046,0.2562,-0.6949,0.1015,0.1268
6906,-1.2905,-10.2807,0.3017,-0.6861,0.0981,0.1263
6915,-1.3216,-10.2592,0.2251,-0.6784,0.1007,0.1236
6922,-1.2953,-10.2615,0.2514,-0.6718,0.0962,0.1212
6930,-1.3575,-10.2568,0.3232,-0.6622,0.0981,0.1180
6938,-1.3072,-10.2472,0.3160,-0.6510,0.0965,0.1156
6946,-1.2857,-10.1921,0.0910,-0.6454,0.0957,0.1148
6955,-1.3264,-10.1825,0.2634,-0.6299,0.0962,0.1162
6962,-1.3072,-10.2017,0.2394,-0.6185,0.0978,0.1047
6970,-1.3072,-10.1347,0.1413,-0.6083,0.0951,0.1058
6978,-1.3431,-10.0963,0.2538,-0.5987,0.0954,0.1069
6986,-1.2186,-10.0868,0.2682,-0.5868,0.0893,0.0997
6994,-1.3264,-10.0365,0.1772,-0.5734,0.0933,0.0994
7003,-1.3072,-10.0628,0.1987,-0.5646,0.0925,0.0983
7010,-1.3072,-10.0221,0.2203,-0.5505,0.0949,0.0922
7018,-1.3072,-10.0485,0.2035,-0.5388,0.0946,0.0925
7026,-1.2737,-9.9814,0.2825,-0.5241,0.0941,0.0935
7034,-1.2617,-10.0078,0.2682,-0.5127,0.0914,0.0890
7043,-1.2594,-10.0102,0.2753,-0.4999,0.0943,0.0845
7050,-1.2665,-9.9599,0.2705,-0.4887,0.0959,0.0831
7058,-1.2426,-9.9000,0.2634,-0.4746,0.0967,0.0818
7066,-1.2713,-9.9575,0.2155,-0.4594,0.0946,0.0767
7074,-1.2833,-9.9335,0.1772,-0.4469,0.0919,0.0730
7083,-1.2905,-9.9407,0.2466,-0.4298,0.0906,0.0711
7090,-1.2665,-9.8976,0.2586,-0.4165,0.0898,0.0677
7098,-1.2857,-9.9024,0.2107,-0.3997,0.0911,0.0658
7106,-1.2594,-9.8665,0.2394,-0.3850,0.0901,0.0589
7114,-1.2186,-9.7899,0.2634,-0.3680,0.0903,0.0586
7122,-1.2354,-9.8234,0.2921,-0.3536,0.0919,0.0538
7131,-1.2641,-9.8426,0.2729,-0.3328,0.0903,0.0512
7138,-1.2378,-9.7348,0.2035,-0.3174,0.0882,0.0464
7146,-1.2761,-9.7348,0.2107,-0.3024,0.0895,0.0424
7154,-1.1971,-9.7252,0.2490,-0.2870,0.0823,0.0370
7162,-1.2641,-9.7037,0.2993,-0.2683,0.0805,0.0333
7171,-1.2378,-9.7372,0.2490,-0.2470,0.0807,0.0296
7178,-1.1803,-9.7492,0.3232,-0.2270,0.0805,0.0285
7186,-1.1899,-9.7037,0.2227,-0.2110,0.0789,0.0224
7194,-1.2402,-9.6558,0.2059,-0.1913,0.0759,0.0189
7202,-1.2378,-9.6391,0.2203,-0.1721,0.0701,0.0125
7211,-1.2306,-9.6678,0.2658,-0.1495,0.0674,0.0099
7219,-1.2043,-9.6582,0.2179,-0.1290,0.0658,0.0051
7226,-1.2426,-9.7037,0.2155,-0.1114,0.0605,0.0021
7234,-1.2522,-9.6510,0.2801,-0.0882,0.0562,0.0029
7242,-1.2139,-9.6774,0.2729,-0.0687,0.0509,-0.0045
7250,-1.1851,-9.5816,0.2849,-0.0488,0.0472,-0.0091
7259,-1.1899,-9.6941,0.2418,-0.0272,0.0384,-0.0099
7266,-1.2163,-9.6247,0.2777,-0.0064,0.0333,-0.0160
7274,-1.2306,-9.6462,0.2634,0.0147,0.0277,-0.0171
7282,-1.2570,-9.6558,0.2155,0.0362,0.0224,-0.0211
7290,-1.2330,-9.6678,0.3184,0.0560,0.0171,-0.0234
7299,-1.2498,-9.5696,0.2514,0.0759,0.0085,-0.0261
7307,-1.2163,-9.6774,0.1508,0.0946,-0.0003,-0.0272
7314,-1.2833,-9.7109,0.2203,0.1154,-0.0027,-0.0328
7322,-1.2163,-9.6606,0.2849,0.1338,-0.0115,-0.0341
7330,-1.1827,-9.6630,0.2251,0.1540,-0.0176,-0.0402
7339,-1.2929,-9.6343,0.1676,0.1705,-0.0285,-0.0416
7347,-1.2713,-9.7109,0.1891,0.1897,-0.0357,-0.0402
7354,-1.2785,-9.6798,0.2801,0.2113,-0.0442,-0.0440
7362,-1.2785,-9.7205,0.2993,0.2294,-0.0552,-0.0469
7370,-1.1971,-9.7229,0.1676,0.2475,-0.0626,-0.0461
7378,-1.2474,-9.7468,0.2418,0.2617,-0.0695,-0.0528
7387,-1.2378,-9.7420,0.1772,0.2806,-0.0773,-0.0538
7395,-1.2450,-9.7252,0.2490,0.3014,-0.0821,-0.0586
7402,-1.2641,-9.8138,0.2059,0.3214,-0.0951,-0.0576
7410,-1.2067,-9.7731,0.1820,0.3339,-0.0970,-0.0597
7418,-1.2665,-9.7779,0.1724,0.3525,-0.1079,-0.0650
7427,-1.2641,-9.8378,0.2251,0.3722,-0.1140,-0.0658
7435,-1.3096,-9.8402,0.2442,0.3858,-0.1196,-0.0677
7442,-1.3024,-9.8402,0.2131,0.4010,-0.1266,-0.0650
7450,-1.2378,-9.8976,0.2035,0.4207,-0.1346,-0.0695
7458,-1.2689,-9.8737,0.2634,0.4341,-0.1359,-0.0735
7467,-1.2426,-9.9120,0.2514,0.4469,-0.1447,-0.0751
7475,-1.2617,-9.9192,0.2227,0.4620,-0.1476,-0.0754
7483,-1.2809,-9.9479,0.2107,0.4732,-0.1522,-0.0759
7490,-1.2617,-10.0173,0.1269,0.4858,-0.1529,-0.0810
7498,-1.2617,-10.0102,0.1891,0.4986,-0.1567,-0.0815
7506,-1.2426,-9.9910,0.1556,0.5127,-0.1577,-0.0818
7515,-1.2713,-10.0580,0.1844,0.5241,-0.1633,-0.0815
7523,-1.2617,-10.0173,0.1580,0.5324,-0.1636,-0.0893
7530,-1.3001,-10.0389,0.1820,0.5446,-0.1665,-0.0863
7538,-1.2929,-10.0126,0.1844,0.5513,-0.1695,-0.0885
7546,-1.2713,-10.0413,0.1628,0.5652,-0.1657,-0.0911
7555,-1.2977,-10.0772,0.1365,0.5748,-0.1692,-0.0922
7563,-1.3048,-10.0533,0.2370,0.5833,-0.1713,-0.0927
7571,-1.3503,-10.1634,0.1389,0.5913,-0.1644,-0.0949
7578,-1.3048,-10.0844,0.1844,0.6033,-0.1676,-0.0930
7586,-1.3240,-10.1730,0.2179,0.6110,-0.1695,-0.0938
7595,-1.2737,-10.1394,0.1125,0.6185,-0.1657,-0.0965
7603,-1.2977,-10.2137,0.1460,0.6259,-0.1636,-0.0973
7611,-1.2833,-10.2113,0.1604,0.6320,-0.1639,-0.0973
7618,-1.3336,-10.2376,0.1580,0.6379,-0.1633,-0.0999
7626,-1.3312,-10.2328,0.1987,0.6472,-0.1593,-0.1010
7634,-1.3144,-10.2352,0.1652,0.6507,-0.1593,-0.0991
7643,-1.2953,-10.2352,0.1125,0.6587,-0.1569,-0.1018
7651,-1.3336,-10.2711,0.1125,0.6648,-0.1580,-0.1021
7659,-1.2857,-10.2065,0.1437,0.6688,-0.1537,-0.1013
7666,-1.3671,-10.2783,0.0766,0.6771,-0.1527,-0.1029
7674,-1.3431,-10.2520,0.1748,0.6843,-0.1484,-0.1002
7683,-1.3024,-10.2639,0.1437,0.6888,-0.1474,-0.1007
7691,-1.3767,-10.2783,0.0934,0.6939,-0.1476,-0.1015
7699,-1.3048,-10.2903,0.2274,0.6973,-0.1484,-0.1021
7706,-1.3958,-10.3070,0.0814,0.7045,-0.1463,-0.1031
7714,-1.3623,-10.3166,0.1293,0.7064,-0.1420,-0.0989
7723,-1.3288,-10.3094,0.1724,0.7064,-0.1436,-0.0994
7731,-1.3647,-10.3166,0.0407,0.7088,-0.1394,-0.0986
7739,-1.3336,-10.2975,0.0551,0.7072,-0.1364,-0.0973
7747,-1.3575,-10.3286,0.2083,0.7077,-0.1394,-0.0975
7754,-1.3384,-10.3142,0.1077,0.7109,-0.1372,-0.0954
7762,-1.3527,-10.3190,0.0527,0.7109,-0.1362,-0.0925
7771,-1.3910,-10.2975,0.1293,0.7056,-0.1367,-0.0930
7779,-1.3096,-10.3118,0.0790,0.7048,-0.1338,-0.0933
7787,-1.3862,-10.2735,0.1197,0.7005,-0.1338,-0.0906
7794,-1.3384,-10.2735,0.0455,0.6973,-0.1327,-0.0887
7802,-1.3623,-10.2711,0.0479,0.6933,-0.1324,-0.0853
7811,-1.3647,-10.2855,0.1149,0.6872,-0.1282,-0.0829
7819,-1.3551,-10.2711,0.1748,0.6835,-0.1306,-0.0815
7827,-1.3216,-10.2711,0.0359,0.6765,-0.1290,-0.0834
7834,-1.2713,-10.2544,0.0886,0.6715,-0.1276,-0.0799
7842,-1.3479,-10.2089,0.1197,0.6619,-0.1279,-0.0767
7851,-1.3455,-10.1873,0.1556,0.6571,-0.1290,-0.0751
7859,-1.3551,-10.2137,0.0886,0.6502,-0.1266,-0.0717
7867,-1.3503,-10.2113,0.0311,0.6403,-0.1298,-0.0671
7875,-1.2977,-10.2065,0.0814,0.6320,-0.1287,-0.0642
7882,-1.3647,-10.1921,0.0144,0.6233,-0.1295,-0.0645
7890,-1.3599,-10.1778,0.0718,0.6129,-0.1260,-0.0589
7899,-1.2809,-10.1203,0.0527,0.6006,-0.1263,-0.0610
7907,-1.2761,-10.0892,0.0646,0.5934,-0.1247,-0.0560
7915,-1.3240,-10.0796,0.1006,0.5798,-0.1271,-0.0544
7922,-1.3360,-10.1299,0.1197,0.5694,-0.1218,-0.0493
7930,-1.3192,-10.0892,0.1006,0.5596,-0.1220,-0.0458
7939,-1.3575,-10.0556,0.0982,0.5484,-0.1186,-0.0437
7947,-1.3144,-10.0245,0.0934,0.5367,-0.1215,-0.0418
7955,-1.3216,-9.9599,0.0479,0.5249,-0.1188,-0.0376
7963,-1.2929,-10.0437,0.0958,0.5119,-0.1146,-0.0373
7970,-1.3288,-10.0892,0.0383,0.5047,-0.1188,-0.0346
7979,-1.3527,-9.9766,-0.0120,0.4871,-0.1143,-0.0298
7987,-1.3384,-9.9431,0.1006,0.4778,-0.1132,-0.0293
7995,-1.2809,-9.9479,0.0527,0.4666,-0.1130,-0.0256
8003,-1.3192,-9.9024,0.0718,0.4551,-0.1090,-0.0264
8010,-1.3096,-9.8497,0.0479,0.4421,-0.1077,-0.0192
8018,-1.2953,-9.9264,0.0934,0.4269,-0.1047,-0.0173
8027,-1.3431,-9.8785,0.0311,0.4138,-0.1042,-0.0149
8035,-1.2809,-9.9024,-0.0072,0.4000,-0.0989,-0.0069
8043,-1.2929,-9.8306,0.0527,0.3837,-0.1010,-0.0096
8051,-1.3096,-9.8378,0.0958,0.3717,-0.0994,-0.0019
8058,-1.3360,-9.8545,0.0000,0.3579,-0.0919,0.0000
8067,-1.2617,-9.8162,0.0694,0.3387,-0.0898,0.0064
8075,-1.3216,-9.8258,0.0646,0.3230,-0.0887,0.0083
8083,-1.3288,-9.8066,0.0527,0.3064,-0.0826,0.0139
8091,-1.2689,-9.7779,-0.0072,0.2926,-0.0807,0.0165
8098,-1.2785,-9.7588,0.0359,0.2761,-0.0818,0.0211
8107,-1.2761,-9.7468,0.0670,0.2574,-0.0749,0.0237
8115,-1.2713,-9.7276,0.0239,0.2414,-0.0711,0.0266
8123,-1.2953,-9.7205,0.0287,0.2284,-0.0632,0.0288
8131,-1.2067,-9.7229,0.0646,0.2110,-0.0626,0.0322
8139,-1.2713,-9.7133,0.0168,0.1895,-0.0608,0.0352
8146,-1.2713,-9.6845,0.0527,0.1767,-0.0584,0.0386
8155,-1.3264,-9.7348,0.0287,0.1583,-0.0504,0.0429
8163,-1.2594,-9.6726,0.0096,0.1394,-0.0466,0.0472
8171,-1.2570,-9.6893,0.0168,0.1218,-0.0389,0.0520
8179,-1.2234,-9.6127,0.0910,0.1015,-0.0376,0.0557
8186,-1.2258,-9.7205,-0.0431,0.0850,-0.0309,0.0573
8195,-1.2594,-9.5888,-0.0622,0.0637,-0.0240,0.0626
8203,-1.2761,-9.6510,0.0096,0.0466,-0.0226,0.0666
8211,-1.2929,-9.6965,0.0215,0.0272,-0.0147,0.0709
8219,-1.2426,-9.6822,0.0263,0.0093,-0.0107,0.0746
8227,-1.2713,-9.6486,0.0215,-0.0101,-0.0045,0.0789
8235,-1.2306,-9.6750,0.0311,-0.0293,0.0027,0.0834
8243,-1.2234,-9.6486,0.0766,-0.0432,0.0056,0.0861
8251,-1.2641,-9.6295,0.0575,-0.0637,0.0149,0.0895
8259,-1.3288,-9.6845,0.0838,-0.0807,0.0226,0.0901
8267,-1.2426,-9.7205,0.0407,-0.0943,0.0277,0.0962
8274,-1.2689,-9.6295,-0.0575,-0.1183,0.0312,0.0978
8283,-1.2330,-9.7205,0.1413,-0.1295,0.0392,0.1015
8291,-1.2617,-9.6869,0.0503,-0.1508,0.0453,0.1047
8299,-1.3096,-9.6319,0.0503,-0.1679,0.0504,0.1061
8307,-1.2737,-9.6798,0.0527,-0.1849,0.0544,0.1103
8314,-1.2785,-9.7564,-0.0622,-0.2028,0.0624,0.1156
8323,-1.2761,-9.6965,0.0575,-0.2214,0.0653,0.1223
8331,-1.2426,-9.7372,0.0694,-0.2353,0.0709,0.1196
8339,-1.2665,-9.7707,0.0215,-0.2585,0.0751,0.1226
8347,-1.2306,-9.7372,-0.0048,-0.2747,0.0831,0.1290
8355,-1.2163,-9.7731,0.0479,-0.2926,0.0882,0.1308
8363,-1.2785,-9.7947,0.0814,-0.3056,0.0941,0.1311
8371,-1.2665,-9.8497,0.0335,-0.3243,0.1018,0.1332
8379,-1.2498,-9.8043,0.1604,-0.3416,0.1026,0.1375
8387,-1.2378,-9.7947,0.1077,-0.3587,0.1116,0.1402
8395,-1.2857,-9.8114,-0.0215,-0.3717,0.1143,0.1386
8402,-1.2570,-9.8641,0.1125,-0.3872,0.1228,0.1420
8411,-1.2546,-9.9096,0.0718,-0.4021,0.1300,0.1420
8419,-1.2641,-9.9048,0.0622,-0.4178,0.1322,0.1431
8427,-1.2881,-9.9335,0.0455,-0.4285,0.1380,0.1418
8435,-1.2641,-9.9431,0.0646,-0.4407,0.1412,0.1458
8443,-1.2641,-9.9431,0.1341,-0.4530,0.1442,0.1460
8451,-1.3168,-9.9072,0.1125,-0.4642,0.1490,0.1455
8459,-1.3072,-10.0054,0.1030,-0.4770,0.1500,0.1487
8467,-1.2737,-9.9599,0.1293,-0.4868,0.1551,0.1479
8475,-1.2665,-10.0317,0.1867,-0.4951,0.1577,0.1556
8483,-1.3216,-9.9551,0.1053,-0.5025,0.1601,0.1490
8491,-1.3503,-9.9982,0.1437,-0.5151,0.1601,0.1506
8499,-1.3408,-10.0820,0.1963,-0.5215,0.1615,0.1519
8507,-1.3168,-10.0868,0.0742,-0.5295,0.1596,0.1495
8515,-1.3192,-10.0748,0.0646,-0.5391,0.1663,0.1514
8523,-1.3264,-10.0987,0.0838,-0.5478,0.1655,0.1516
8531,-1.3240,-10.0916,0.2035,-0.5580,0.1644,0.1514
8539,-1.2737,-10.1299,0.1317,-0.5649,0.1625,0.1506
8547,-1.3455,-10.1131,0.1772,-0.5705,0.1607,0.1522
8555,-1.3575,-10.0987,0.1508,-0.5785,0.1631,0.1511
8563,-1.2785,-10.1562,0.0575,-0.5854,0.1641,0.1514
8571,-1.2809,-10.1825,0.1245,-0.5931,0.1588,0.1508
8579,-1.2689,-10.1921,0.1772,-0.5990,0.1543,0.1519
8587,-1.3384,-10.1945,0.2035,-0.6081,0.1514,0.1524
8595,-1.3503,-10.2137,0.1317,-0.6126,0.1498,0.1553
8603,-1.3623,-10.2328,0.2442,-0.6161,0.1479,0.1537
8611,-1.3527,-10.2352,0.2442,-0.6241,0.1460,0.1543
8620,-1.3001,-10.2592,0.2442,-0.6342,0.1436,0.1548
8627,-1.3264,-10.2208,0.1221,-0.6400,0.1362,0.1514
8635,-1.2857,-10.1969,0.2274,-0.6440,0.1335,0.1543
8643,-1.3360,-10.2544,0.1844,-0.6515,0.1327,0.1529
8651,-1.3384,-10.2185,0.0670,-0.6526,0.1268,0.1511
8659,-1.3144,-10.2568,0.1556,-0.6590,0.1276,0.1522
8667,-1.3001,-10.2520,0.2011,-0.6632,0.1228,0.1503
8675,-1.3312,-10.2687,0.1891,-0.6662,0.1207,0.1468
8683,-1.2905,-10.3046,0.1628,-0.6691,0.1162,0.1466
8691,-1.3312,-10.2592,0.1963,-0.6712,0.1138,0.1476
8699,-1.3479,-10.1945,0.2538,-0.6726,0.1127,0.1442
8708,-1.2689,-10.2448,0.2346,-0.6744,0.1085,0.1442
8715,-1.3024,-10.2065,0.2083,-0.6760,0.1100,0.1404
8723,-1.3001,-10.2999,0.2251,-0.6728,0.1079,0.1420
8731,-1.3599,-10.2280,0.2849,-0.6742,0.1026,0.1386
8739,-1.2833,-10.2663,0.1676,-0.6726,0.0997,0.1348
8748,-1.3360,-10.2232,0.1508,-0.6691,0.1021,0.1354
8755,-1.3384,-10.2903,0.1844,-0.6648,0.1002,0.1306
8763,-1.2713,-10.3166,0.1724,-0.6643,0.0983,0.1314
8771,-1.2905,-10.2568,0.2107,-0.6582,0.0954,0.1306
8779,-1.3001,-10.2232,0.2083,-0.6547,0.0949,0.1263
8787,-1.2809,-10.2208,0.2418,-0.6467,0.0890,0.1242
8796,-1.3072,-10.2568,0.2059,-0.6406,0.0882,0.1194
8803,-1.2737,-10.2448,0.2897,-0.6350,0.0895,0.1186
8811,-1.3288,-10.2185,0.2203,-0.6267,0.0925,0.1194
8819,-1.2833,-10.1634,0.3112,-0.6187,0.0930,0.1154
8827,-1.3264,-10.1778,0.2107,-0.6091,0.0909,0.1114
8836,-1.3120,-10.1394,0.2753,-0.5985,0.0887,0.1095
8843,-1.3024,-10.1873,0.2586,-0.5937,0.0890,0.1077
8851,-1.2617,-10.0868,0.1915,-0.5801,0.0903,0.1071
8859,-1.2665,-10.0868,0.1221,-0.5694,0.0898,0.1045
8867,-1.2857,-10.1083,0.3041,-0.5617,0.0909,0.0999
8876,-1.3096,-10.0317,0.1915,-0.5492,0.0922,0.0975
8884,-1.2234,-10.0868,0.2658,-0.5377,0.0946,0.0959
8891,-1.2809,-10.0556,0.2825,-0.5284,0.0901,0.0954
8899,-1.3240,-10.0341,0.1987,-0.5156,0.0938,0.0922
8907,-1.2833,-10.0006,0.2490,-0.5063,0.0941,0.0858
8915,-1.2426,-10.0341,0.3160,-0.4935,0.0922,0.0858
8924,-1.3072,-10.0556,0.3065,-0.4828,0.0898,0.0821
8931,-1.2210,-10.0078,0.1628,-0.4711,0.0951,0.0778
8939,-1.2929,-9.9599,0.2394,-0.4583,0.0927,0.0757
8947,-1.2857,-9.9311,0.2466,-0.4469,0.0898,0.0725
8955,-1.2809,-9.9264,0.2753,-0.4317,0.0935,0.0703
8964,-1.2665,-9.9192,0.2394,-0.4181,0.0925,0.0719
8972,-1.2091,-9.8904,0.2418,-0.4066,0.0933,0.0634
8979,-1.2474,-9.8713,0.2059,-0.3954,0.0925,0.0613
8987,-1.2737,-9.8833,0.2514,-0.3829,0.0917,0.0581
8995,-1.2809,-9.8593,0.2203,-0.3645,0.0898,0.0533
9004,-1.2282,-9.9168,0.2179,-0.3533,0.0917,0.0504
9012,-1.2977,-9.8617,0.2298,-0.3368,0.0903,0.0472
9019,-1.2546,-9.7875,0.2945,-0.3272,0.0842,0.0421
9027,-1.2402,-9.8354,0.2753,-0.3083,0.0847,0.0418
9035,-1.2761,-9.8186,0.2897,-0.2968,0.0845,0.0368
9043,-1.2474,-9.7731,0.1963,-0.2787,0.0831,0.0312
9052,-1.2617,-9.7157,0.2346,-0.2662,0.0823,0.0293
9059,-1.2043,-9.8043,0.2227,-0.2454,0.0778,0.0229
9067,-1.2594,-9.7444,0.2227,-0.2329,0.0746,0.0240
9075,-1.2234,-9.7659,0.3065,-0.2140,0.0711,0.0192
9083,-1.2546,-9.7851,0.2011,-0.1977,0.0661,0.0189
9092,-1.2737,-9.7516,0.3089,-0.1801,0.0629,0.0120
9100,-1.2306,-9.8186,0.2251,-0.1628,0.0650,0.0077
9107,-1.1756,-9.7085,0.1628,-0.1458,0.0568,0.0067
9115,-1.2258,-9.6774,0.2562,-0.1276,0.0525,0.0059
9123,-1.1588,-9.6822,0.1987,-0.1063,0.0506,-0.0013
9132,-1.2617,-9.7372,0.2538,-0.0911,0.0445,-0.0021
9140,-1.2091,-9.6558,0.2705,-0.0685,0.0397,-0.0072
9147,-1.2378,-9.7181,0.2682,-0.0469,0.0352,-0.0099
9155,-1.2689,-9.7133,0.2466,-0.0330,0.0280,-0.0115
9163,-1.2641,-9.7157,0.2993,-0.0128,0.0237,-0.0149
9171,-1.2378,-9.7636,0.2729,0.0067,0.0173,-0.0184
9180,-1.2163,-9.6582,0.2251,0.0242,0.0112,-0.0216
9188,-1.2067,-9.7037,0.3208,0.0442,0.0053,-0.0258
9195,-1.2426,-9.6079,0.2514,0.0618,0.0003,-0.0272
9203,-1.2019,-9.6845,0.2059,0.0802,-0.0059,-0.0298
9211,-1.2163,-9.7588,0.2586,0.1021,-0.0131,-0.0293
9220,-1.2330,-9.7827,0.2658,0.1188,-0.0197,-0.0349
9228,-1.2617,-9.6845,0.1867,0.1354,-0.0269,-0.0362
9235,-1.2258,-9.6965,0.1987,0.1529,-0.0344,-0.0410
9243,-1.2067,-9.7348,0.2131,0.1708,-0.0432,-0.0450
9251,-1.2378,-9.7468,0.2610,0.1879,-0.0506,-0.0453
9260,-1.2570,-9.7540,0.2538,0.2054,-0.0565,-0.0490
9268,-1.2067,-9.7492,0.2322,0.2198,-0.0616,-0.0504
9276,-1.2354,-9.7540,0.2298,0.2374,-0.0679,-0.0530
9283,-1.2186,-9.7707,0.1724,0.2555,-0.0746,-0.0546
9291,-1.2689,-9.7540,0.2179,0.2670,-0.0810,-0.0581
9299,-1.2905,-9.7851,0.2466,0.2838,-0.0882,-0.0597
9308,-1.2354,-9.7564,0.2083,0.3054,-0.0943,-0.0645
9316,-1.2713,-9.8354,0.2658,0.3190,-0.1018,-0.0677
9323,-1.2929,-9.8497,0.2562,0.3347,-0.1079,-0.0666
9331,-1.2450,-9.8713,0.1963,0.3507,-0.1138,-0.0706
9339,-1.2617,-9.8665,0.2203,0.3645,-0.1159,-0.0698
9348,-1.2617,-9.9048,0.1293,0.3792,-0.1220,-0.0695
9356,-1.3072,-9.8689,0.1939,0.3922,-0.1266,-0.0735
9364,-1.2737,-9.8569,0.1628,0.4066,-0.1348,-0.0743
9371,-1.2953,-9.8904,0.1867,0.4199,-0.1372,-0.0775
9379,-1.2617,-9.9072,0.1317,0.4330,-0.1383,-0.0775
9388,-1.2929,-9.9383,0.1700,0.4442,-0.1378,-0.0770
9396,-1.3144,-9.9527,0.1413,0.4551,-0.1447,-0.0799
9404,-1.3001,-9.9072,0.2466,0.4666,-0.1442,-0.0805
9411,-1.3408,-9.9838,0.1221,0.4740,-0.1495,-0.0807
9419,-1.2546,-9.9886,0.2203,0.4860,-0.1452,-0.0842
9427,-1.3001,-10.0485,0.1820,0.4932,-0.1471,-0.0839
9436,-1.3168,-10.0030,0.1796,0.5031,-0.1484,-0.0802
9444,-1.3384,-10.0652,0.1652,0.5108,-0.1444,-0.0826
9452,-1.3144,-10.0652,0.1796,0.5215,-0.1458,-0.0839
9459,-1.3048,-10.1107,0.2155,0.5337,-0.1490,-0.0842
9467,-1.2594,-10.0628,0.1341,0.5417,-0.1452,-0.0890
9476,-1.3072,-10.1155,0.1844,0.5510,-0.1423,-0.0866
9484,-1.3096,-10.0868,0.1700,0.5580,-0.1423,-0.0863
9492,-1.2857,-10.1059,0.1580,0.5662,-0.1423,-0.0877
9499,-1.2354,-10.1203,0.1987,0.5734,-0.1388,-0.0903
9507,-1.2953,-10.1011,0.1580,0.5849,-0.1372,-0.0898
9516,-1.3384,-10.1083,0.1532,0.5875,-0.1364,-0.0885
9524,-1.3479,-10.1778,0.2298,0.5939,-0.1343,-0.0922
9532,-1.3168,-10.1873,0.2227,0.5998,-0.1322,-0.0919
9540,-1.3192,-10.1706,0.1389,0.6033,-0.1314,-0.0938
9547,-1.3312,-10.2161,0.1700,0.6115,-0.1287,-0.0943
9555,-1.2929,-10.2065,0.1556,0.6161,-0.1308,-0.0927
9564,-1.3264,-10.2376,0.1365,0.6209,-0.1276,-0.0927
9572,-1.3527,-10.1586,0.1963,0.6286,-0.1255,-0.0922
9580,-1.3264,-10.1873,0.1508,0.6297,-0.1239,-0.0951
9587,-1.3168,-10.2400,0.0766,0.6358,-0.1218,-0.0933
9595,-1.3120,-10.2208,0.1604,0.6387,-0.1215,-0.0933
9604,-1.3168,-10.2208,0.1628,0.6419,-0.1223,-0.0938
9612,-1.3360,-10.2663,0.1724,0.6440,-0.1234,-0.0957
9620,-1.3120,-10.2161,0.1580,0.6488,-0.1194,-0.0917
9627,-1.3312,-10.2208,0.1628,0.6520,-0.1183,-0.0925
9635,-1.3120,-10.2855,0.1317,0.6518,-0.1220,-0.0895
9644,-1.3360,-10.2376,0.0694,0.6550,-0.1218,-0.0887
9652,-1.3144,-10.2065,0.1365,0.6550,-0.1226,-0.0882
9660,-1.3958,-10.2041,0.0718,0.6539,-0.1212,-0.0858
9668,-1.3910,-10.2400,0.1652,0.6504,-0.1202,-0.0831
9675,-1.3838,-10.2615,0.0982,0.6494,-0.1220,-0.0861
9683,-1.3360,-10.2568,0.0910,0.6440,-0.1220,-0.0821
9692,-1.3575,-10.2256,-0.0024,0.6424,-0.1204,-0.0778
9700,-1.3647,-10.2304,0.0215,0.6347,-0.1183,-0.0754
9708,-1.3503,-10.2065,0.0527,0.6302,-0.1194,-0.0714
9715,-1.3288,-10.2400,0.0359,0.6275,-0.1188,-0.0690
9723,-1.3168,-10.1682,0.0646,0.6227,-0.1199,-0.0690
9732,-1.2929,-10.2065,0.1365,0.6147,-0.1226,-0.0653
9740,-1.3527,-10.2041,0.0790,0.6110,-0.1218,-0.0626
9748,-1.3862,-10.1825,0.0646,0.6051,-0.1244,-0.0610
9756,-1.3599,-10.1562,0.0694,0.5937,-0.1186,-0.0560
9763,-1.3192,-10.1610,0.1317,0.5875,-0.1202,-0.0568
9772,-1.3312,-10.1155,0.0239,0.5801,-0.1215,-0.0541
9780,-1.2953,-10.1394,0.1125,0.5740,-0.1236,-0.0512
9788,-1.2953,-10.0963,0.0718,0.5660,-0.1252,-0.0496
9796,-1.2857,-10.1179,0.0982,0.5572,-0.1207,-0.0453
9803,-1.3862,-10.0748,0.1987,0.5425,-0.1196,-0.0429
9811,-1.3264,-10.0868,0.0838,0.5351,-0.1234,-0.0416
9820,-1.3336,-10.0676,0.0718,0.5252,-0.1231,-0.0386
9828,-1.3096,-10.0820,0.0527,0.5167,-0.1204,-0.0352
9836,-1.2641,-9.9838,-0.0311,0.5047,-0.1164,-0.0344
9844,-1.3408,-10.0149,0.1604,0.4972,-0.1188,-0.0325
9851,-1.3360,-10.0054,0.0096,0.4855,-0.1196,-0.0309
9860,-1.3144,-10.0173,0.1484,0.4740,-0.1143,-0.0285
9868,-1.3384,-9.9647,0.0455,0.4634,-0.1167,-0.0253
9876,-1.2905,-9.9216,0.1532,0.4530,-0.1132,-0.0232
9884,-1.3024,-9.9982,0.1006,0.4423,-0.1199,-0.0195
9891,-1.3312,-9.8665,0.0383,0.4301,-0.1114,-0.0152
9900,-1.3360,-9.8904,0.0718,0.4215,-0.1095,-0.0168
9908,-1.2881,-9.9096,0.0192,0.4117,-0.1058,-0.0093
9916,-1.2785,-9.9790,0.0239,0.3957,-0.1015,-0.0067
9924,-1.3072,-9.9024,0.1053,0.3845,-0.1031,-0.0051
9932,-1.3623,-9.8330,-0.0120,0.3691,-0.0973,-0.0021
9939,-1.2905,-9.8186,0.0431,0.3573,-0.0967,0.0000
9948,-1.3144,-9.8234,0.0982,0.3440,-0.0954,0.0016
9956,-1.2498,-9.8186,-0.0263,0.3301,-0.0890,0.0072
9964,-1.2617,-9.8258,0.0575,0.3176,-0.0882,0.0083
9972,-1.2953,-9.8306,0.0910,0.3006,-0.0858,0.0152
9979,-1.3120,-9.7875,0.0359,0.2859,-0.0813,0.0181
9988,-1.2617,-9.7875,-0.0790,0.2699,-0.0730,0.0195
9996,-1.2833,-9.8186,0.0575,0.2555,-0.0733,0.0266
10004,-1.2617,-9.7372,-0.0048,0.2395,-0.0719,0.0314
10012,-1.2594,-9.7851,-0.0311,0.2238,-0.0674,0.0346
10020,-1.3048,-9.7707,-0.0096,0.2073,-0.0624,0.0378
10028,-1.2929,-9.6917,0.0239,0.1940,-0.0586,0.0426
10036,-1.3072,-9.6582,-0.0144,0.1793,-0.0560,0.0426
10044,-1.2522,-9.7157,-0.0479,0.1641,-0.0509,0.0464
10052,-1.3216,-9.7181,-0.0311,0.1492,-0.0437,0.0485
10060,-1.3120,-9.7300,0.0072,0.1298,-0.0384,0.0517
10067,-1.2282,-9.7181,0.0575,0.1132,-0.0344,0.0565
10076,-1.2258,-9.6726,0.0934,0.0999,-0.0314,0.0605
10084,-1.2641,-9.6798,-0.0072,0.0805,-0.0266,0.0624
10092,-1.3024,-9.6486,-0.0575,0.0648,-0.0203,0.0658
10100,-1.3024,-9.7133,0.0503,0.0469,-0.0165,0.0730
10108,-1.2043,-9.6774,0.0239,0.0288,-0.0064,0.0741
10116,-1.2570,-9.6917,0.0048,0.0160,-0.0056,0.0783
10124,-1.2019,-9.6654,0.0048,-0.0053,0.0045,0.0794
10132,-1.2139,-9.6702,0.1030,-0.0211,0.0077,0.0850
10140,-1.2402,-9.6798,0.0096,-0.0402,0.0123,0.0871
10148,-1.2210,-9.7396,-0.0670,-0.0522,0.0211,0.0893
10156,-1.2785,-9.6917,0.0838,-0.0719,0.0264,0.0941
10164,-1.2761,-9.6798,0.0551,-0.0847,0.0309,0.0983
10172,-1.2426,-9.6965,0.1077,-0.1029,0.0338,0.0970
10180,-1.1995,-9.7372,0.0072,-0.1228,0.0397,0.1026
10188,-1.2570,-9.7707,0.0455,-0.1338,0.0445,0.1042
10196,-1.2929,-9.7037,0.0790,-0.1490,0.0504,0.1053
10204,-1.2546,-9.7300,0.0742,-0.1636,0.0528,0.1082
10212,-1.2953,-9.6438,0.1173,-0.1844,0.0576,0.1111
10220,-1.2881,-9.7229,0.0862,-0.1982,0.0600,0.1138
10228,-1.3144,-9.7516,0.1006,-0.2132,0.0679,0.1156
10236,-1.2929,-9.7205,0.0862,-0.2326,0.0717,0.1231
10244,-1.2905,-9.7707,-0.0120,-0.2459,0.0773,0.1242
10252,-1.2713,-9.7372,0.1365,-0.2665,0.0789,0.1276
10260,-1.2833,-9.7683,0.0934,-0.2798,0.0887,0.1306
10268,-1.2186,-9.7947,-0.0048,-0.2942,0.0930,0.1306
10276,-1.3408,-9.8186,0.0766,-0.3115,0.0954,0.1327
10284,-1.3001,-9.8521,0.0790,-0.3283,0.0989,0.1335
10292,-1.2378,-9.8545,0.1006,-0.3395,0.1010,0.1375
10300,-1.2594,-9.8665,0.1293,-0.3557,0.1079,0.1359
10308,-1.3168,-9.8138,0.1293,-0.3691,0.1151,0.1412
10316,-1.3144,-9.9000,0.1053,-0.3834,0.1194,0.1375
10324,-1.2594,-9.8809,0.0790,-0.3909,0.1180,0.1399
10332,-1.2977,-9.8952,0.0311,-0.4064,0.1207,0.1410
10340,-1.2474,-9.9311,0.1293,-0.4175,0.1236,0.1426
10348,-1.2617,-9.9623,0.0670,-0.4274,0.1306,0.1426
10356,-1.3096,-9.9240,0.1006,-0.4346,0.1287,0.1423
10364,-1.2258,-9.9623,0.1604,-0.4455,0.1330,0.1431
10372,-1.3360,-9.9575,0.1341,-0.4546,0.1372,0.1431
10380,-1.2641,-9.9527,0.0838,-0.4639,0.1402,0.1447
10388,-1.2594,-9.9695,0.0958,-0.4727,0.1423,0.1436
10396,-1.3264,-10.0317,0.0838,-0.4818,0.1418,0.1442
10404,-1.2665,-10.0102,0.1317,-0.4887,0.1404,0.1442
10413,-1.3024,-10.0413,0.1365,-0.4932,0.1447,0.1447
10420,-1.2809,-10.0413,0.1508,-0.5031,0.1452,0.1450
10428,-1.3336,-10.0269,0.1317,-0.5089,0.1452,0.1444
10436,-1.2929,-10.0700,0.0503,-0.5175,0.1500,0.1468
10444,-1.3072,-10.0868,0.1413,-0.5239,0.1458,0.1452
10452,-1.3024,-10.0868,0.1341,-0.5319,0.1444,0.1466
10460,-1.3120,-10.1131,0.1365,-0.5407,0.1436,0.1436
10468,-1.3384,-10.1203,0.2322,-0.5415,0.1436,0.1423
10476,-1.2953,-10.0892,0.1365,-0.5510,0.1423,0.1479
10484,-1.2761,-10.1203,0.1341,-0.5580,0.1439,0.1423
10492,-1.2929,-10.1131,0.1939,-0.5588,0.1399,0.1442
10501,-1.3216,-10.2041,0.1724,-0.5662,0.1378,0.1450
10508,-1.3048,-10.1490,0.2466,-0.5732,0.1372,0.1426
10516,-1.2857,-10.1347,0.1484,-0.5782,0.1370,0.1452
10524,-1.2953,-10.1466,0.1891,-0.5865,0.1332,0.1428
10532,-1.3024,-10.2232,0.2538,-0.5889,0.1319,0.1450
10541,-1.3144,-10.1897,0.1077,-0.5945,0.1290,0.1420
10548,-1.3144,-10.2041,0.1772,-0.5993,0.1274,0.1434
10556,-1.3240,-10.1801,0.2801,-0.6041,0.1247,0.1431
10564,-1.3024,-10.1059,0.1700,-0.6043,0.1260,0.1415
10572,-1.3503,-10.1801,0.1556,-0.6105,0.1228,0.1399
10580,-1.3288,-10.1754,0.2179,-0.6171,0.1199,0.1386
10589,-1.3288,-10.2161,0.1389,-0.6155,0.1164,0.1375
10596,-1.3360,-10.2161,0.1915,-0.6166,0.1124,0.1354
10604,-1.2641,-10.2304,0.2203,-0.6187,0.1122,0.1364
10612,-1.3024,-10.1993,0.2274,-0.6185,0.1103,0.1348
10620,-1.2450,-10.2999,0.2203,-0.6174,0.1077,0.1308
10629,-1.3192,-10.1825,0.1844,-0.6187,0.1047,0.1303
10636,-1.3144,-10.1969,0.2394,-0.6171,0.1061,0.1279
10644,-1.3647,-10.1921,0.1628,-0.6150,0.1007,0.1282
10652,-1.2953,-10.2137,0.2155,-0.6123,0.0999,0.1244
10660,-1.2641,-10.1897,0.2634,-0.6067,0.0978,0.1234
10669,-1.2857,-10.1754,0.1245,-0.6067,0.0975,0.1191
10677,-1.2977,-10.1754,0.2753,-0.5979,0.0949,0.1186
10684,-1.3144,-10.1107,0.1700,-0.5913,0.0917,0.1154
10692,-1.3120,-10.1730,0.2227,-0.5857,0.0989,0.1132
10700,-1.2953,-10.1466,0.1556,-0.5788,0.0909,0.1108
10708,-1.2977,-10.1179,0.1556,-0.5756,0.0919,0.1087
10717,-1.3479,-10.2208,0.2442,-0.5654,0.0882,0.1034
10724,-1.3168,-10.1251,0.2274,-0.5609,0.0909,0.1031
10732,-1.3096,-10.1203,0.2466,-0.5518,0.0887,0.1007
10740,-1.2641,-10.1251,0.2442,-0.5391,0.0898,0.0997
10748,-1.2905,-10.0461,0.2059,-0.5343,0.0895,0.0959
10757,-1.2857,-10.0509,0.2801,-0.5209,0.0831,0.0901
10765,-1.2953,-10.0796,0.3041,-0.5159,0.0861,0.0917
10772,-1.3001,-10.0245,0.1820,-0.5039,0.0839,0.0861
10780,-1.2929,-10.0604,0.2035,-0.4930,0.0853,0.0871
10788,-1.2713,-10.0341,0.2035,-0.4839,0.0869,0.0823
10797,-1.2713,-10.0149,0.2346,-0.4743,0.0853,0.0781
10805,-1.2713,-9.9695,0.2658,-0.4642,0.0847,0.0775
10812,-1.2617,-9.9958,0.2227,-0.4530,0.0863,0.0767
10820,-1.2929,-9.9742,0.2131,-0.4429,0.0837,0.0719
10828,-1.2929,-9.9407,0.2322,-0.4341,0.0847,0.0687
10836,-1.2953,-9.9527,0.1532,-0.4205,0.0839,0.0661
10845,-1.2857,-9.9742,0.2131,-0.4093,0.0821,0.0653
10853,-1.2474,-9.9599,0.2107,-0.3978,0.0845,0.0594
10860,-1.3216,-9.8737,0.2634,-0.3864,0.0815,0.0578
10868,-1.2186,-9.9096,0.2442,-0.3784,0.0823,0.0570
10876,-1.2881,-9.9192,0.2059,-0.3611,0.0762,0.0536
10885,-1.2163,-9.8737,0.2155,-0.3523,0.0802,0.0485
10893,-1.2306,-9.8497,0.1915,-0.3400,0.0765,0.0472
10900,-1.3144,-9.8426,0.1508,-0.3262,0.0762,0.0424
10908,-1.2450,-9.8881,0.3041,-0.3110,0.0701,0.0424
10916,-1.2378,-9.8330,0.2466,-0.2976,0.0690,0.0378
10925,-1.2498,-9.7899,0.2634,-0.2867,0.0682,0.0378
10933,-1.2139,-9.8426,0.2825,-0.2707,0.0671,0.0330
10941,-1.2186,-9.8162,0.2658,-0.2579,0.0602,0.0306
10948,-1.2474,-9.7636,0.2466,-0.2427,0.0616,0.0245
10956,-1.2306,-9.8162,0.3089,-0.2294,0.0594,0.0224
10964,-1.2354,-9.7731,0.2466,-0.2134,0.0549,0.0211
10973,-1.2234,-9.7707,0.2059,-0.2009,0.0562,0.0173
10981,-1.2354,-9.7420,0.3089,-0.1836,0.0544,0.0115
10988,-1.2570,-9.7755,0.2442,-0.1655,0.0506,0.0104
10996,-1.2713,-9.7516,0.1484,-0.1490,0.0472,0.0051
11004,-1.2019,-9.7348,0.2227,-0.1348,0.0426,0.0040
11013,-1.2522,-9.6845,0.2634,-0.1199,0.0408,-0.0008
11021,-1.2282,-9.7324,0.2274,-0.1015,0.0376,-0.0037
11029,-1.2378,-9.6486,0.2418,-0.0829,0.0320,-0.0043
11036,-1.2115,-9.6965,0.2059,-0.0655,0.0293,-0.0112
11044,-1.2163,-9.7372,0.3519,-0.0469,0.0256,-0.0147
11053,-1.2306,-9.7085,0.1724,-0.0285,0.0195,-0.0155
11061,-1.2546,-9.7181,0.2801,-0.0131,0.0125,-0.0200
11069,-1.1779,-9.6941,0.1772,0.0056,0.0088,-0.0224
11076,-1.2378,-9.6845,0.1700,0.0211,0.0080,-0.0250
11084,-1.2330,-9.7564,0.2729,0.0400,0.0003,-0.0253
11092,-1.2713,-9.7133,0.2466,0.0552,-0.0053,-0.0285
11101,-1.1851,-9.7468,0.1867,0.0746,-0.0077,-0.0328
11109,-1.2426,-9.7133,0.1508,0.0903,-0.0168,-0.0357
11117,-1.2067,-9.7516,0.2610,0.1066,-0.0229,-0.0373
11124,-1.2043,-9.7755,0.2705,0.1252,-0.0269,-0.0378
11132,-1.2953,-9.7636,0.1389,0.1375,-0.0306,-0.0413
11141,-1.2354,-9.7300,0.2346,0.1561,-0.0389,-0.0453
11149,-1.2139,-9.7612,0.2562,0.1719,-0.0445,-0.0461
11157,-1.1899,-9.7229,0.1724,0.1847,-0.0496,-0.0504
11164,-1.2139,-9.7444,0.2274,0.2017,-0.0597,-0.0509
11172,-1.2737,-9.7444,0.2203,0.2198,-0.0634,-0.0557
11181,-1.2306,-9.7947,0.2658,0.2329,-0.0693,-0.0544
11189,-1.2402,-9.7971,0.1580,0.2441,-0.0725,-0.0576
11197,-1.2665,-9.8043,0.2131,0.2614,-0.0789,-0.0573
11204,-1.2689,-9.8282,0.2394,0.2801,-0.0861,-0.0616
11212,-1.2641,-9.7827,0.2274,0.2920,-0.0901,-0.0618
11220,-1.2426,-9.8090,0.2346,0.3062,-0.0978,-0.0626
11229,-1.2306,-9.8450,0.2155,0.3224,-0.1031,-0.0658
11237,-1.2115,-9.8282,0.0982,0.3333,-0.1058,-0.0701
11245,-1.2761,-9.8378,0.1987,0.3509,-0.1095,-0.0701
11252,-1.3120,-9.8330,0.2346,0.3611,-0.1164,-0.0714
11260,-1.2570,-9.8593,0.1628,0.3760,-0.1162,-0.0679
11269,-1.2570,-9.8857,0.1987,0.3853,-0.1239,-0.0725
11277,-1.3144,-9.9240,0.1867,0.3936,-0.1268,-0.0719
11285,-1.2570,-9.9335,0.2035,0.4088,-0.1290,-0.0738
11292,-1.2378,-10.0221,0.1963,0.4186,-0.1298,-0.0746
11300,-1.2665,-9.9814,0.2107,0.4263,-0.1268,-0.0717
11309,-1.2881,-10.0221,0.2179,0.4357,-0.1279,-0.0781
11317,-1.2594,-9.9814,0.2370,0.4490,-0.1346,-0.0738
11325,-1.2426,-9.9766,0.2179,0.4517,-0.1319,-0.0786
11333,-1.3001,-9.9575,0.1820,0.4618,-0.1308,-0.0789
11340,-1.3096,-10.0509,0.2490,0.4746,-0.1298,-0.0773
11348,-1.2809,-10.0245,0.2442,0.4783,-0.1340,-0.0799
11357,-1.3120,-10.0365,0.1772,0.4900,-0.1335,-0.0837
11365,-1.2282,-10.0652,0.2179,0.4999,-0.1284,-0.0797
11373,-1.3048,-10.1011,0.1604,0.5063,-0.1303,-0.0789
11380,-1.3120,-10.0580,0.1676,0.5132,-0.1303,-0.0837
11388,-1.3312,-10.0509,0.1915,0.5209,-0.1316,-0.0821
11397,-1.3384,-10.0748,0.1556,0.5300,-0.1260,-0.0853
11405,-1.3192,-10.0844,0.1772,0.5337,-0.1250,-0.0853
11413,-1.3360,-10.0772,0.1652,0.5407,-0.1228,-0.0863
11421,-1.3216,-10.1059,0.2322,0.5486,-0.1210,-0.0818
11428,-1.2857,-10.1730,0.2538,0.5513,-0.1202,-0.0831
11437,-1.3168,-10.1562,0.2490,0.5577,-0.1186,-0.0855
11445,-1.2785,-10.0987,-0.0072,0.5588,-0.1191,-0.0871
11453,-1.3264,-10.1466,0.1437,0.5670,-0.1146,-0.0847
11461,-1.3120,-10.0772,0.2394,0.5713,-0.1130,-0.0855
11468,-1.3360,-10.1658,0.1772,0.5742,-0.1138,-0.0871
11476,-1.3743,-10.1251,0.1125,0.5806,-0.1127,-0.0863
11485,-1.3288,-10.1083,0.1245,0.5865,-0.1087,-0.0845
11493,-1.3312,-10.1945,0.1125,0.5878,-0.1146,-0.0829
11501,-1.2833,-10.1442,0.1293,0.5945,-0.1100,-0.0834
11509,-1.3240,-10.2017,0.1556,0.5963,-0.1095,-0.0842
11516,-1.3264,-10.1083,0.1772,0.5987,-0.1069,-0.0815
11525,-1.3503,-10.1514,0.1006,0.5969,-0.1069,-0.0807
11533,-1.3671,-10.1538,0.0670,0.5990,-0.1092,-0.0813
11541,-1.2713,-10.1730,0.1245,0.5985,-0.1100,-0.0783
11549,-1.3479,-10.1658,0.1245,0.6001,-0.1079,-0.0759
11556,-1.3288,-10.1993,0.0910,0.5995,-0.1079,-0.0727
11565,-1.3623,-10.1778,0.0790,0.5979,-0.1116,-0.0733
11573,-1.3264,-10.1418,0.0982,0.5923,-0.1116,-0.0709
11581,-1.3312,-10.1562,0.0982,0.5931,-0.1103,-0.0695
11589,-1.3168,-10.1754,0.1437,0.5907,-0.1108,-0.0671
11597,-1.3216,-10.2041,0.1293,0.5870,-0.1130,-0.0655
11604,-1.3336,-10.1490,0.1173,0.5844,-0.1090,-0.0648
11613,-1.3072,-10.1083,0.1269,0.5774,-0.1111,-0.0602
11621,-1.2426,-10.1083,0.1053,0.5713,-0.1138,-0.0592
11629,-1.3096,-10.0772,0.0718,0.5633,-0.1103,-0.0600
11637,-1.3168,-10.1059,0.1053,0.5633,-0.1138,-0.0552
11644,-1.3503,-10.1203,0.0742,0.5534,-0.1140,-0.0504
11653,-1.3216,-10.1131,0.0742,0.5476,-0.1119,-0.0496
11661,-1.3862,-10.1083,0.1293,0.5404,-0.1143,-0.0458
11669,-1.3647,-10.0676,0.0239,0.5348,-0.1114,-0.0450
11677,-1.3384,-10.1610,0.1149,0.5281,-0.1135,-0.0378
11685,-1.3384,-10.0772,0.0670,0.5161,-0.1103,-0.0405
11693,-1.3192,-10.0509,0.0407,0.5108,-0.1146,-0.0381
11701,-1.3264,-10.0413,-0.0168,0.5009,-0.1127,-0.0341
11709,-1.3048,-10.0413,0.1389,0.4951,-0.1122,-0.0352
11717,-1.3120,-10.0054,0.1317,0.4820,-0.1130,-0.0328
11725,-1.3216,-10.0317,0.1006,0.4738,-0.1130,-0.0280
11732,-1.3120,-10.0269,0.1413,0.4652,-0.1092,-0.0253
11741,-1.2929,-9.9814,0.1580,0.4549,-0.1069,-0.0250
11749,-1.2905,-9.9695,0.1365,0.4471,-0.1087,-0.0213
11757,-1.3120,-9.9982,0.0311,0.4357,-0.1066,-0.0211
11765,-1.3312,-9.9575,0.1245,0.4277,-0.1042,-0.0149
11773,-1.2929,-9.9407,0.0622,0.4191,-0.1077,-0.0131
11781,-1.3360,-9.9216,0.0670,0.4066,-0.1018,-0.0141
11789,-1.2929,-9.9000,0.1413,0.3965,-0.1013,-0.0096
11797,-1.2641,-9.8737,0.0862,0.3845,-0.0983,-0.0064
11805,-1.3120,-9.8881,0.0599,0.3760,-0.0983,-0.0045
11813,-1.2665,-9.8785,0.0527,0.3661,-0.0935,0.0011
11821,-1.2929,-9.8617,0.0575,0.3533,-0.0946,0.0027
11829,-1.3001,-9.9311,0.0239,0.3389,-0.0914,0.0069
11837,-1.3048,-9.8569,0.0646,0.3320,-0.0869,0.0096
11845,-1.2857,-9.8186,0.0239,0.3174,-0.0882,0.0115
11853,-1.3192,-9.8545,0.0144,0.3048,-0.0797,0.0155
11860,-1.2809,-9.8402,-0.0048,0.2896,-0.0802,0.0192
11869,-1.3024,-9.8186,-0.0168,0.2769,-0.0783,0.0229
11877,-1.2929,-9.7492,-0.0168,0.2662,-0.0714,0.0240
11885,-1.2953,-9.7683,0.1053,0.2502,-0.0679,0.0277
11893,-1.2594,-9.7923,0.0048,0.2374,-0.0669,0.0312
11901,-1.2617,-9.7803,0.0407,0.2204,-0.0618,0.0384
11909,-1.2378,-9.7995,0.0599,0.2076,-0.0578,0.0429
11917,-1.2857,-9.7683,0.0742,0.1943,-0.0514,0.0464
11925,-1.2689,-9.7205,0.0527,0.1761,-0.0493,0.0466
11933,-1.3001,-9.7683,0.0407,0.1644,-0.0437,0.0490
11941,-1.2617,-9.7205,0.0359,0.1503,-0.0402,0.0496
11949,-1.2378,-9.7396,0.0024,0.1311,-0.0360,0.0560
11957,-1.2809,-9.7348,0.0551,0.1215,-0.0341,0.0565
11965,-1.3144,-9.7588,0.0862,0.1061,-0.0261,0.0597
11973,-1.3001,-9.7324,-0.0144,0.0922,-0.0242,0.0645
11981,-1.3096,-9.7588,0.0407,0.0743,-0.0163,0.0685
11990,-1.2570,-9.7348,0.0144,0.0597,-0.0133,0.0698
11997,-1.2833,-9.7372,0.0838,0.0424,-0.0077,0.0751
12005,-1.2498,-9.7420,0.0431,0.0277,-0.0064,0.0741
12013,-1.2737,-9.7348,0.0838,0.0077,-0.0003,0.0786
12021,-1.2617,-9.7037,0.0287,-0.0032,0.0043,0.0821
12029,-1.2522,-9.7564,0.0910,-0.0176,0.0099,0.0869
12037,-1.2546,-9.7157,0.0527,-0.0333,0.0085,0.0858
12045,-1.2282,-9.6726,0.0934,-0.0522,0.0171,0.0898
12053,-1.2210,-9.7061,0.0168,-0.0648,0.0253,0.0962
12061,-1.2737,-9.7324,-0.0168,-0.0810,0.0240,0.0975
12069,-1.2953,-9.6582,0.0934,-0.0954,0.0306,0.0991
12078,-1.2402,-9.7444,-0.0072,-0.1092,0.0341,0.1039
12085,-1.2953,-9.7252,0.1006,-0.1252,0.0386,0.1029
12093,-1.3072,-9.7061,0.1006,-0.1378,0.0437,0.1058
12101,-1.2953,-9.7372,0.0527,-0.1532,0.0482,0.1050
12109,-1.2785,-9.7468,0.0407,-0.1689,0.0530,0.1103
12118,-1.2522,-9.7875,0.0455,-0.1817,0.0597,0.1124
12125,-1.2617,-9.7707,0.1101,-0.2012,0.0602,0.1170
12133,-1.2689,-9.7588,0.0718,-0.2113,0.0621,0.1194
12141,-1.2234,-9.7923,0.0742,-0.2257,0.0693,0.1218
12149,-1.2905,-9.8138,0.0359,-0.2451,0.0719,0.1260
12157,-1.3024,-9.7899,0.0862,-0.2579,0.0775,0.1271
12166,-1.2474,-9.7731,0.0168,-0.2769,0.0746,0.1303
12173,-1.2594,-9.7971,0.1293,-0.2888,0.0842,0.1324
12181,-1.2522,-9.8114,0.0048,-0.3030,0.0815,0.1351
12189,-1.2665,-9.8330,0.0742,-0.3176,0.0887,0.1338
12197,-1.2977,-9.9072,0.0694,-0.3277,0.0925,0.1394
12206,-1.3168,-9.8713,0.0599,-0.3405,0.0959,0.1372
12213,-1.2833,-9.8809,0.1293,-0.3547,0.0989,0.1346
12221,-1.2785,-9.9240,0.1604,-0.3648,0.1061,0.1386
12229,-1.2857,-9.8761,0.0551,-0.3754,0.1087,0.1364
12237,-1.2665,-9.9311,0.0958,-0.3821,0.1066,0.1372
12246,-1.2354,-9.8857,0.0910,-0.3941,0.1148,0.1372
12254,-1.2785,-9.9240,0.1891,-0.4029,0.1178,0.1383
12261,-1.2785,-9.9455,0.0694,-0.4120,0.1196,0.1407
12269,-1.2881,-9.9910,0.1437,-0.4191,0.1196,0.1391
12277,-1.3216,-10.0341,0.1341,-0.4295,0.1223,0.1386
12285,-1.2785,-10.0413,0.0862,-0.4378,0.1260,0.1412
12294,-1.3168,-9.9527,0.1053,-0.4458,0.1279,0.1378
12301,-1.2857,-10.0413,0.1748,-0.4538,0.1274,0.1394
12309,-1.3048,-10.0604,0.1939,-0.4594,0.1319,0.1378
12317,-1.3288,-10.0269,0.0383,-0.4642,0.1324,0.1383
12325,-1.3144,-10.0054,0.1293,-0.4676,0.1319,0.1399
12334,-1.3791,-9.9599,0.1915,-0.4746,0.1319,0.1386
12342,-1.3384,-10.0221,0.1532,-0.4831,0.1300,0.1383
12349,-1.2689,-10.0461,0.1173,-0.4876,0.1300,0.1375
12357,-1.3216,-10.0748,0.2059,-0.4943,0.1287,0.1348
12365,-1.2929,-10.0580,0.1245,-0.4999,0.1319,0.1383
12374,-1.3336,-10.1442,0.1772,-0.5084,0.1290,0.1351
12382,-1.2881,-10.0868,0.2251,-0.5100,0.1308,0.1348
12389,-1.2953,-10.0580,0.2298,-0.5172,0.1287,0.1359
12397,-1.3120,-10.0892,0.1293,-0.5212,0.1284,0.1346
12405,-1.3455,-10.1131,0.0742,-0.5260,0.1284,0.1335
12413,-1.3336,-10.1035,0.1053,-0.5335,0.1266,0.1348
12422,-1.2833,-10.1107,0.1197,-0.5399,0.1250,0.1351
12429,-1.2713,-10.0987,0.1077,-0.5417,0.1226,0.1338
12437,-1.2689,-10.1682,0.1867,-0.5470,0.1175,0.1354
12445,-1.3575,-10.1969,0.1173,-0.5508,0.1202,0.1340
12453,-1.3599,-10.1275,0.2203,-0.5548,0.1159,0.1340
12462,-1.2474,-10.1275,0.1724,-0.5556,0.1122,0.1335
12470,-1.2881,-10.1706,0.1891,-0.5638,0.1106,0.1327
12477,-1.3216,-10.1873,0.1365,-0.5617,0.1108,0.1303
12485,-1.3096,-10.1490,0.0766,-0.5622,0.1095,0.1295
12493,-1.3096,-10.1610,0.1963,-0.5718,0.1050,0.1290
12502,-1.3360,-10.1466,0.1724,-0.5681,0.1007,0.1287
12510,-1.3384,-10.1203,0.1915,-0.5676,0.0991,0.1271
12517,-1.2929,-10.1514,0.1293,-0.5681,0.0989,0.1220
12525,-1.3384,-10.1514,0.2466,-0.5673,0.0962,0.1244
12533,-1.2737,-10.1131,0.2562,-0.5686,0.0954,0.1186
12541,-1.2905,-10.2113,0.1796,-0.5652,0.0930,0.1191
12550,-1.2570,-10.1538,0.1891,-0.5636,0.0935,0.1156
12558,-1.3599,-10.1514,0.2083,-0.5580,0.0927,0.1154
12565,-1.3336,-10.1706,0.1389,-0.5534,0.0909,0.1111
12573,-1.3408,-10.1323,0.1700,-0.5510,0.0917,0.1082
12581,-1.3527,-10.1275,0.2825,-0.5454,0.0890,0.1066
12590,-1.3288,-10.1538,0.2155,-0.5412,0.0874,0.1042
12598,-1.2594,-10.0987,0.2322,-0.5332,0.0866,0.1007
12605,-1.2881,-10.0628,0.1963,-0.5255,0.0842,0.0986
12613,-1.2905,-10.1131,0.1556,-0.5209,0.0853,0.0943
12621,-1.3216,-10.0963,0.2538,-0.5140,0.0842,0.0941
12630,-1.2713,-10.0485,0.1867,-0.5031,0.0839,0.0914
12638,-1.3120,-10.0844,0.2274,-0.5004,0.0826,0.0885
12646,-1.3336,-10.0796,0.3041,-0.4876,0.0831,0.0826
12653,-1.2617,-10.0413,0.2155,-0.4802,0.0799,0.0837
12661,-1.2713,-10.0173,0.2394,-0.4700,0.0810,0.0786
12669,-1.2570,-10.0533,0.2682,-0.4618,0.0770,0.0759
12678,-1.2713,-10.0006,0.1867,-0.4538,0.0775,0.0727
12686,-1.2833,-10.0078,0.2179,-0.4447,0.0805,0.0738
12693,-1.2809,-9.9695,0.2179,-0.4349,0.0757,0.0722
12701,-1.2713,-9.9623,0.1844,-0.4253,0.0733,0.0714
12709,-1.2929,-9.9359,0.1915,-0.4133,0.0754,0.0658
12718,-1.3096,-9.9742,0.1772,-0.4029,0.0754,0.0634
12726,-1.2809,-9.9000,0.2705,-0.3946,0.0749,0.0637
12734,-1.2043,-9.9072,0.2251,-0.3842,0.0711,0.0621
12741,-1.2785,-9.9288,0.2538,-0.3778,0.0685,0.0589
12749,-1.2450,-9.8617,0.1484,-0.3624,0.0703,0.0541
12758,-1.3264,-9.9120,0.2131,-0.3544,0.0685,0.0528
12766,-1.3192,-9.9240,0.1939,-0.3427,0.0677,0.0488
12774,-1.2737,-9.9575,0.1844,-0.3307,0.0674,0.0469
12781,-1.2594,-9.9024,0.1820,-0.3216,0.0687,0.0448
12789,-1.2402,-9.9072,0.2251,-0.3086,0.0671,0.0416
12797,-1.2809,-9.8761,0.2179,-0.2984,0.0655,0.0370
12806,-1.2330,-9.8162,0.2274,-0.2864,0.0661,0.0344
12814,-1.2953,-9.8450,0.2562,-0.2721,0.0600,0.0280
12822,-1.2809,-9.8282,0.1269,-0.2635,0.0629,0.0288
12829,-1.2186,-9.8426,0.2346,-0.2462,0.0584,0.0296
12837,-1.2067,-9.8282,0.3041,-0.2342,0.0581,0.0229
12846,-1.2474,-9.7923,0.2394,-0.2214,0.0568,0.0197
12854,-1.2498,-9.7971,0.3160,-0.2076,0.0536,0.0176
12862,-1.2617,-9.8114,0.2490,-0.1961,0.0504,0.0149
12869,-1.2163,-9.6989,0.1580,-0.1783,0.0506,0.0128
12877,-1.2665,-9.7540,0.2179,-0.1639,0.0466,0.0080
12886,-1.2354,-9.7372,0.1700,-0.1524,0.0461,0.0064
12894,-1.2546,-9.7851,0.1604,-0.1372,0.0413,0.0008
12902,-1.2857,-9.7827,0.2897,-0.1199,0.0410,-0.0021
12910,-1.1947,-9.7588,0.2801,-0.1034,0.0368,-0.0048
12917,-1.2210,-9.7276,0.2801,-0.0893,0.0328,-0.0083
12925,-1.2761,-9.6917,0.2658,-0.0738,0.0309,-0.0107
12934,-1.2330,-9.7516,0.2227,-0.0560,0.0256,-0.0139
12942,-1.2689,-9.7540,0.1484,-0.0400,0.0211,-0.0155
12950,-1.2474,-9.7420,0.1724,-0.0245,0.0189,-0.0203
12957,-1.2474,-9.7492,0.2921,-0.0099,0.0141,-0.0216
12965,-1.2258,-9.7468,0.1101,0.0069,0.0093,-0.0240
12974,-1.2067,-9.7851,0.2011,0.0256,0.0088,-0.0280
12982,-1.2713,-9.7564,0.2705,0.0410,0.0027,-0.0285
12990,-1.2163,-9.7995,0.2682,0.0541,-0.0043,-0.0317
12997,-1.2713,-9.7612,0.2394,0.0701,-0.0085,-0.0354
13005,-1.2210,-9.7061,0.2274,0.0869,-0.0109,-0.0344
13014,-1.1947,-9.7659,0.2346,0.1039,-0.0179,-0.0394
13022,-1.2186,-9.7444,0.3256,0.1151,-0.0248,-0.0421
13030,-1.2546,-9.7468,0.2753,0.1306,-0.0325,-0.0416
13038,-1.2857,-9.8210,0.2945,0.1498,-0.0338,-0.0432
13045,-1.2474,-9.7731,0.1053,0.1620,-0.0410,-0.0490
13053,-1.2498,-9.7875,0.3041,0.1743,-0.0440,-0.0485
13062,-1.2617,-9.7779,0.2490,0.1881,-0.0573,-0.0496
13070,-1.2378,-9.7731,0.1676,0.2028,-0.0576,-0.0536
13078,-1.2043,-9.8090,0.2490,0.2142,-0.0642,-0.0522
13085,-1.2785,-9.8258,0.2011,0.2297,-0.0701,-0.0536
13093,-1.2809,-9.8138,0.2514,0.2417,-0.0743,-0.0578
13102,-1.2689,-9.8617,0.2538,0.2550,-0.0757,-0.0610
13110,-1.2833,-9.8402,0.2035,0.2699,-0.0850,-0.0621
13118,-1.2833,-9.8569,0.1676,0.2835,-0.0935,-0.0613
13126,-1.2594,-9.8665,0.2155,0.2963,-0.0973,-0.0616
13133,-1.2617,-9.8497,0.2442,0.3072,-0.0999,-0.0632
13142,-1.2546,-9.8617,0.1365,0.3238,-0.1069,-0.0687
13150,-1.2570,-9.8617,0.1796,0.3373,-0.1087,-0.0650
13158,-1.2953,-9.8617,0.1365,0.3456,-0.1156,-0.0645
13166,-1.2833,-9.9192,0.1796,0.3541,-0.1175,-0.0669
13173,-1.2498,-9.9742,0.1580,0.3661,-0.1178,-0.0661
13181,-1.2785,-9.9240,0.1772,0.3736,-0.1239,-0.0690
13190,-1.2905,-10.0126,0.2155,0.3842,-0.1231,-0.0698
13198,-1.2689,-9.9431,0.2945,0.3920,-0.1258,-0.0730
13206,-1.3216,-9.8952,0.1341,0.4018,-0.1260,-0.0711
13214,-1.3096,-9.9814,0.1484,0.4117,-0.1268,-0.0698
13221,-1.2594,-9.9503,0.0886,0.4191,-0.1276,-0.0733
13230,-1.2522,-9.9575,0.2490,0.4279,-0.1308,-0.0698
13238,-1.2139,-10.0149,0.1676,0.4381,-0.1263,-0.0730
13246,-1.3408,-10.0317,0.2155,0.4458,-0.1274,-0.0738
13254,-1.2977,-10.0173,0.1676,0.4501,-0.1260,-0.0725
13261,-1.3408,-10.0078,0.1245,0.4578,-0.1260,-0.0730
13270,-1.3001,-10.0078,0.1173,0.4687,-0.1279,-0.0762
13278,-1.2594,-9.9910,0.3160,0.4730,-0.1260,-0.0738
13286,-1.2953,-10.0772,0.1293,0.4812,-0.1266,-0.0783
13294,-1.3001,-10.0796,0.1173,0.4831,-0.1194,-0.0781
13302,-1.3384,-10.0078,0.1389,0.4964,-0.1194,-0.0781
13309,-1.2953,-10.0772,0.1149,0.4994,-0.1148,-0.0770
13318,-1.2881,-10.0341,0.1293,0.5052,-0.1140,-0.0783
13326,-1.2665,-10.0916,0.1101,0.5103,-0.1143,-0.0799
13334,-1.3288,-10.1107,0.1125,0.5137,-0.1119,-0.0786
13342,-1.2977,-10.0772,0.1341,0.5196,-0.1106,-0.0802
13349,-1.3216,-10.1251,0.0910,0.5228,-0.1130,-0.0794
13358,-1.3384,-10.1323,0.1030,0.5265,-0.1053,-0.0802
13366,-1.3240,-10.0533,0.1508,0.5311,-0.1029,-0.0783
13374,-1.3192,-10.1179,0.1149,0.5367,-0.1021,-0.0773
13382,-1.3288,-10.0963,0.0982,0.5383,-0.1021,-0.0735
13390,-1.3479,-10.0868,0.1508,0.5391,-0.1034,-0.0741
13398,-1.2881,-10.1370,0.0886,0.5460,-0.0981,-0.0754
13406,-1.2737,-10.1059,0.1293,0.5462,-0.0935,-0.0749
13414,-1.2881,-10.0868,0.2203,0.5481,-0.0986,-0.0738
13422,-1.3264,-10.1227,0.1149,0.5508,-0.0957,-0.0698
13430,-1.3072,-10.1299,0.1652,0.5542,-0.0951,-0.0690
13437,-1.3695,-10.1921,0.1700,0.5521,-0.0933,-0.0658
13446,-1.2713,-10.1466,0.1101,0.5516,-0.0943,-0.0674
13454,-1.3312,-10.0868,0.1556,0.5518,-0.0911,-0.0637
13462,-1.3096,-10.1299,0.1844,0.5508,-0.0941,-0.0618
13470,-1.3599,-10.1035,0.1221,0.5486,-0.0927,-0.0626
13478,-1.3192,-10.0987,0.0934,0.5444,-0.0938,-0.0589
13486,-1.3623,-10.1323,0.0814,0.5449,-0.0914,-0.0573
13494,-1.3096,-10.0844,0.0886,0.5393,-0.0911,-0.0554
13502,-1.3072,-10.1131,0.0718,0.5359,-0.0914,-0.0517
13510,-1.3288,-10.1131,0.0407,0.5316,-0.0933,-0.0520
13518,-1.3408,-10.1059,0.0958,0.5271,-0.0943,-0.0472
13526,-1.2809,-10.0820,0.1221,0.5212,-0.0911,-0.0472
13534,-1.3216,-10.0317,0.0527,0.5156,-0.0943,-0.0421
13542,-1.3312,-10.1059,0.0982,0.5111,-0.0959,-0.0418
13550,-1.3168,-10.0844,0.1915,0.5004,-0.0949,-0.0410
13558,-1.3336,-10.0173,0.1508,0.4978,-0.0943,-0.0386
13566,-1.3048,-10.0676,0.0646,0.4932,-0.0935,-0.0365
13574,-1.3599,-10.0987,0.1293,0.4866,-0.0919,-0.0362
13582,-1.2929,-10.0317,0.0431,0.4823,-0.0943,-0.0317
13590,-1.2833,-10.0149,-0.0072,0.4719,-0.0933,-0.0306
13598,-1.2546,-10.0676,0.0575,0.4639,-0.0941,-0.0285
13606,-1.3144,-10.0461,0.1077,0.4549,-0.0959,-0.0234
13614,-1.2977,-10.0245,0.0646,0.4447,-0.0927,-0.0248
13622,-1.2905,-9.9862,0.1053,0.4333,-0.0917,-0.0211
13630,-1.3072,-9.9479,0.0239,0.4285,-0.0949,-0.0192
13638,-1.3001,-9.9862,0.0575,0.4210,-0.0922,-0.0155
13646,-1.2857,-9.9766,0.0431,0.4122,-0.0949,-0.0152
13655,-1.3719,-9.9383,-0.0431,0.4010,-0.0951,-0.0101
13662,-1.3336,-9.9838,0.0838,0.3949,-0.0919,-0.0085
13670,-1.3623,-9.9264,0.1460,0.3848,-0.0869,-0.0069
13678,-1.3001,-9.8617,0.0192,0.3749,-0.0933,0.0011
13686,-1.2594,-9.8833,0.1221,0.3603,-0.0877,0.0008
13694,-1.2977,-9.8617,-0.0096,0.3523,-0.0893,0.0011
13702,-1.2977,-9.8904,0.0599,0.3475,-0.0890,0.0072
13710,-1.3192,-9.8928,0.0024,0.3312,-0.0887,0.0101
13718,-1.2809,-9.8665,0.0144,0.3232,-0.0882,0.0141
13726,-1.2522,-9.8258,0.0239,0.3091,-0.0861,0.0139
13734,-1.2594,-9.8833,-0.0096,0.2990,-0.0807,0.0181
13742,-1.3120,-9.8282,0.1269,0.2856,-0.0802,0.0208
13750,-1.2737,-9.8521,0.0838,0.2745,-0.0805,0.0264
13758,-1.3048,-9.7947,0.1197,0.2590,-0.0778,0.0258
13766,-1.2617,-9.7755,0.1269,0.2539,-0.0687,0.0312
13774,-1.2881,-9.7995,0.0383,0.2390,-0.0719,0.0338
13783,-1.2498,-9.8306,0.1006,0.2265,-0.0661,0.0360
13790,-1.3001,-9.7779,0.0096,0.2126,-0.0677,0.0386
13798,-1.3072,-9.7612,0.0383,0.1993,-0.0629,0.0448
13806,-1.2474,-9.7157,-0.0072,0.1849,-0.0562,0.0429
13814,-1.2306,-9.7923,0.0934,0.1740,-0.0600,0.0506
13822,-1.2785,-9.7827,0.0048,0.1585,-0.0528,0.0525
13830,-1.2689,-9.7779,0.0910,0.1431,-0.0506,0.0549
13838,-1.2546,-9.7372,-0.0287,0.1314,-0.0448,0.0581
13846,-1.2881,-9.7109,0.1125,0.1156,-0.0365,0.0605
13854,-1.3120,-9.7779,0.0551,0.1039,-0.0365,0.0650
13862,-1.2737,-9.7588,0.0575,0.0909,-0.0296,0.0671
13871,-1.3671,-9.7324,0.1293,0.0786,-0.0264,0.0671
13878,-1.2905,-9.7276,0.0910,0.0663,-0.0245,0.0719
13886,-1.2953,-9.7683,0.1149,0.0490,-0.0157,0.0741
13894,-1.2785,-9.7516,0.1006,0.0365,-0.0107,0.0743
13902,-1.2809,-9.7516,0.1269,0.0232,-0.0091,0.0767
13911,-1.2402,-9.7276,0.0742,0.0085,-0.0029,0.0807
13918,-1.2641,-9.7348,0.0886,-0.0048,0.0045,0.0855
13926,-1.2953,-9.7372,0.0383,-0.0205,0.0061,0.0837
13934,-1.2617,-9.7085,0.0072,-0.0365,0.0112,0.0890
13942,-1.2378,-9.6822,-0.0359,-0.0458,0.0171,0.0890
13950,-1.2617,-9.7779,0.1484,-0.0586,0.0213,0.0925
13959,-1.2713,-9.7659,0.0120,-0.0773,0.0253,0.0978
13966,-1.3455,-9.7683,0.1077,-0.0933,0.0298,0.0997
13974,-1.2833,-9.7300,0.0670,-0.1045,0.0344,0.0991
13982,-1.2977,-9.7707,0.0527,-0.1156,0.0397,0.0999
13990,-1.2570,-9.7779,0.0742,-0.1314,0.0386,0.1021
13999,-1.2713,-9.7588,0.0479,-0.1444,0.0485,0.1069
14006,-1.2474,-9.7396,0.1030,-0.1591,0.0498,0.1098
14014,-1.2354,-9.7588,0.1484,-0.1703,0.0522,0.1132
14022,-1.2929,-9.7636,0.0311,-0.1863,0.0546,0.1140
14030,-1.2713,-9.7707,0.1077,-0.1993,0.0618,0.1178
14039,-1.2785,-9.7683,0.0982,-0.2137,0.0616,0.1186
14047,-1.2163,-9.8066,0.0646,-0.2252,0.0687,0.1207
14054,-1.3120,-9.8282,0.0311,-0.2419,0.0759,0.1260
14062,-1.2641,-9.8114,0.0431,-0.2553,0.0813,0.1271
14070,-1.2833,-9.8043,0.1365,-0.2702,0.0810,0.1282
14078,-1.2665,-9.9192,0.1077,-0.2811,0.0874,0.1300
14087,-1.3096,-9.8952,0.1197,-0.2934,0.0869,0.1282
14094,-1.3096,-9.8785,0.0910,-0.3067,0.0906,0.1314
14102,-1.2761,-9.8354,0.0982,-0.3166,0.0962,0.1332
14110,-1.2881,-9.8761,0.2251,-0.3301,0.1010,0.1335
14118,-1.2354,-9.9000,0.1006,-0.3381,0.1018,0.1324
14127,-1.2689,-9.9000,0.0575,-0.3461,0.1034,0.1327
14135,-1.2426,-9.8521,0.1413,-0.3573,0.1042,0.1314
14142,-1.2354,-9.9168,0.0575,-0.3675,0.1069,0.1322
14150,-1.2426,-9.9216,0.0694,-0.3725,0.1106,0.1356
14158,-1.2713,-9.9527,0.0790,-0.3826,0.1119,0.1322
14167,-1.3144,-9.9431,0.0790,-0.3890,0.1146,0.1351
14175,-1.2498,-9.9335,0.1365,-0.3973,0.1108,0.1316
14182,-1.3144,-9.9407,0.0431,-0.4056,0.1180,0.1308
14190,-1.3072,-9.9575,0.0718,-0.4122,0.1159,0.1322
14198,-1.3120,-9.9910,0.1173,-0.4154,0.1194,0.1300
14206,-1.2522,-9.9814,0.0359,-0.4242,0.1164,0.1298
14215,-1.2570,-9.9264,0.1269,-0.4317,0.1148,0.1324
14223,-1.2881,-10.0102,0.1891,-0.4378,0.1175,0.1327
14230,-1.2210,-9.9862,0.0886,-0.4415,0.1204,0.1300
14238,-1.2809,-10.0054,0.1556,-0.4453,0.1186,0.1282
14246,-1.3360,-9.9910,0.0718,-0.4530,0.1199,0.1306
14255,-1.3527,-10.0269,0.0527,-0.4567,0.1151,0.1287
14263,-1.2953,-10.0293,0.2011,-0.4599,0.1170,0.1298
14270,-1.2546,-10.0006,0.0862,-0.4668,0.1178,0.1279
14278,-1.2737,-10.0556,0.1891,-0.4719,0.1124,0.1274
14286,-1.3623,-10.0604,0.1748,-0.4770,0.1151,0.1314
14295,-1.2522,-10.0868,0.1125,-0.4804,0.1100,0.1287
14303,-1.2977,-10.0940,0.1173,-0.4836,0.1077,0.1295
14310,-1.2809,-10.0820,0.1891,-0.4914,0.1077,0.1268
14318,-1.3288,-10.0341,0.0670,-0.4983,0.1053,0.1271
14326,-1.2761,-10.1299,0.2011,-0.5015,0.1053,0.1290
14334,-1.3408,-10.1083,0.1077,-0.5007,0.1013,0.1274
14343,-1.2713,-10.1107,0.2179,-0.5065,0.0999,0.1247
14351,-1.2905,-10.0556,0.2035,-0.5111,0.0999,0.1234
14358,-1.2737,-10.1131,0.1748,-0.5137,0.1015,0.1247
14366,-1.2929,-10.1011,0.2538,-0.5199,0.0949,0.1239
14374,-1.2833,-10.1299,0.0718,-0.5239,0.0962,0.1231
14383,-1.3336,-10.1370,0.2658,-0.5209,0.0946,0.1234
14391,-1.3001,-10.0652,0.1628,-0.5241,0.0911,0.1183
14398,-1.2929,-10.0580,0.1317,-0.5249,0.0885,0.1167
14406,-1.3216,-10.1155,0.1173,-0.5252,0.0890,0.1186
14414,-1.3264,-10.0844,0.1317,-0.5260,0.0869,0.1151
14423,-1.2426,-10.1011,0.2562,-0.5239,0.0834,0.1138
14431,-1.2785,-10.1394,0.1891,-0.5239,0.0826,0.1100
14439,-1.2809,-10.0844,0.2203,-0.5207,0.0842,0.1100
14446,-1.2570,-10.0868,0.1963,-0.5164,0.0783,0.1098
14454,-1.2594,-10.0916,0.2203,-0.5143,0.0786,0.1050
14462,-1.3360,-10.1107,0.1891,-0.5119,0.0818,0.1047
14471,-1.3575,-10.1179,0.2682,-0.5065,0.0815,0.0983
14479,-1.2929,-10.0892,0.1844,-0.4986,0.0813,0.0983
14486,-1.2689,-10.1059,0.2179,-0.4964,0.0778,0.0970
14494,-1.2785,-10.0485,0.1484,-0.4906,0.0786,0.0914
14502,-1.2594,-10.0437,0.2083,-0.4823,0.0767,0.0914
14511,-1.2929,-10.0317,0.2514,-0.4743,0.0799,0.0887
14519,-1.2546,-10.0461,0.2322,-0.4700,0.0781,0.0871
14527,-1.2953,-10.0556,0.1341,-0.4626,0.0765,0.0829
14534,-1.2953,-10.0221,0.1939,-0.4557,0.0751,0.0781
14542,-1.3024,-10.0628,0.2466,-0.4453,0.0759,0.0773
14551,-1.3001,-9.9575,0.3017,-0.4375,0.0735,0.0725
14559,-1.2617,-10.0509,0.1700,-0.4287,0.0778,0.0717
14567,-1.2091,-10.0389,0.2538,-0.4221,0.0730,0.0698
14574,-1.2953,-9.9766,0.1820,-0.4135,0.0762,0.0690
14582,-1.2785,-10.0054,0.2298,-0.4037,0.0743,0.0661
14590,-1.2689,-9.9934,0.1628,-0.3968,0.0733,0.0640
14599,-1.2498,-9.9742,0.2035,-0.3853,0.0741,0.0602
14607,-1.3144,-9.9335,0.1628,-0.3786,0.0730,0.0589
14615,-1.2043,-9.9599,0.2035,-0.3693,0.0719,0.0576
14622,-1.2258,-9.9527,0.1700,-0.3589,0.0687,0.0512
14630,-1.3240,-9.9096,0.2251,-0.3507,0.0717,0.0509
14639,-1.2953,-9.8976,0.2418,-0.3389,0.0709,0.0496
14647,-1.3024,-9.8761,0.2514,-0.3269,0.0674,0.0464
14655,-1.2522,-9.8809,0.2203,-0.3206,0.0727,0.0440
14662,-1.2570,-9.8761,0.1748,-0.3104,0.0701,0.0402
14670,-1.2809,-9.8569,0.1293,-0.2979,0.0674,0.0394
14679,-1.2426,-9.8258,0.2418,-0.2902,0.0669,0.0370
14687,-1.2498,-9.8665,0.1963,-0.2785,0.0637,0.0346
14695,-1.2594,-9.8665,0.1987,-0.2697,0.0602,0.0317
14703,-1.2450,-9.8210,0.0838,-0.2563,0.0653,0.0309
14710,-1.2450,-9.8282,0.1963,-0.2481,0.0621,0.0266
14718,-1.2450,-9.8210,0.2849,-0.2345,0.0592,0.0229
14727,-1.2546,-9.8378,0.2466,-0.2214,0.0557,0.0203
14735,-1.2282,-9.8186,0.1484,-0.2118,0.0549,0.0157
14743,-1.2426,-9.8066,0.2131,-0.1993,0.0557,0.0149
14750,-1.2498,-9.8043,0.2825,-0.1847,0.0488,0.0120
14758,-1.2139,-9.7659,0.2251,-0.1732,0.0482,0.0075
14767,-1.2474,-9.7995,0.2394,-0.1631,0.0458,0.0059
14775,-1.2498,-9.7564,0.2418,-0.1468,0.0429,0.0011
14783,-1.2977,-9.7971,0.2753,-0.1359,0.0418,0.0029
14791,-1.2163,-9.7564,0.2107,-0.1188,0.0376,-0.0013
14798,-1.2258,-9.8043,0.1652,-0.1037,0.0312,-0.0037
14807,-1.1684,-9.7444,0.2945,-0.0919,0.0333,-0.0091
14815,-1.2115,-9.7564,0.2490,-0.0754,0.0266,-0.0115
14823,-1.2378,-9.7588,0.2586,-0.0616,0.0250,-0.0147
14831,-1.2330,-9.6989,0.2658,-0.0464,0.0229,-0.0163
14838,-1.2570,-9.7205,0.1891,-0.0330,0.0176,-0.0200
14846,-1.2019,-9.7995,0.2274,-0.0192,0.0133,-0.0208
14855,-1.1779,-9.7420,0.2777,-0.0021,0.0120,-0.0240
14863,-1.2570,-9.7636,0.1748,0.0131,0.0059,-0.0274
14871,-1.2570,-9.7827,0.2514,0.0266,0.0019,-0.0277
14878,-1.2570,-9.7444,0.2274,0.0408,-0.0045,-0.0325
14886,-1.2402,-9.7659,0.3041,0.0560,-0.0069,-0.0320
14895,-1.2641,-9.7636,0.1772,0.0695,-0.0109,-0.0349
14903,-1.2905,-9.7468,0.1724,0.0858,-0.0203,-0.0397
14911,-1.2881,-9.7659,0.2059,0.0994,-0.0242,-0.0386
14919,-1.2594,-9.7612,0.2179,0.1108,-0.0264,-0.0418
14926,-1.2163,-9.7612,0.2394,0.1258,-0.0298,-0.0410
14935,-1.2378,-9.7683,0.2418,0.1372,-0.0410,-0.0434
14943,-1.2354,-9.8426,0.2155,0.1508,-0.0450,-0.0442
14951,-1.2809,-9.7612,0.3017,0.1641,-0.0488,-0.0485
14959,-1.2402,-9.7899,0.2945,0.1751,-0.0560,-0.0501
14966,-1.2498,-9.7899,0.1867,0.1916,-0.0578,-0.0520
14974,-1.2737,-9.7803,0.2083,0.2025,-0.0642,-0.0549
14983,-1.2306,-9.7923,0.1891,0.2164,-0.0663,-0.0562
14991,-1.2594,-9.8114,0.1389,0.2281,-0.0738,-0.0584
14999,-1.2857,-9.8043,0.1963,0.2414,-0.0813,-0.0573
15007,-1.2498,-9.7827,0.1580,0.2542,-0.0834,-0.0602
15014,-1.2809,-9.8282,0.1915,0.2633,-0.0855,-0.0594
15023,-1.2689,-9.8330,0.0886,0.2745,-0.0930,-0.0610
15031,-1.2809,-9.9024,0.1532,0.2896,-0.0962,-0.0634
15039,-1.3024,-9.9000,0.2538,0.2992,-0.0978,-0.0650
15047,-1.2689,-9.8833,0.2466,0.3110,-0.1047,-0.0632
15054,-1.2641,-9.9024,0.2179,0.3203,-0.1039,-0.0653
15063,-1.2953,-9.8857,0.0575,0.3312,-0.1103,-0.0640
15071,-1.2546,-9.9000,0.1915,0.3405,-0.1085,-0.0640
15079,-1.3096,-9.9359,0.1245,0.3475,-0.1111,-0.0648
15087,-1.2689,-9.9359,0.1221,0.3568,-0.1138,-0.0655
15095,-1.2977,-9.9479,0.1508,0.3653,-0.1162,-0.0650
15102,-1.2929,-9.8952,0.2107,0.3760,-0.1138,-0.0679
15111,-1.2163,-9.9551,0.2107,0.3845,-0.1167,-0.0645
15119,-1.3048,-9.9814,0.1221,0.3901,-0.1151,-0.0687
15127,-1.2833,-9.9455,0.2179,0.3986,-0.1167,-0.0677
15135,-1.2929,-9.9503,0.0503,0.4050,-0.1175,-0.0674
15142,-1.2402,-9.9575,0.2083,0.4130,-0.1186,-0.0682
15151,-1.2809,-10.0341,0.1341,0.4207,-0.1159,-0.0695
15159,-1.3360,-10.0006,0.2035,0.4237,-0.1164,-0.0693
15167,-1.2617,-10.0102,0.1963,0.4327,-0.1164,-0.0674
15175,-1.2953,-9.9814,0.1149,0.4383,-0.1100,-0.0711
15183,-1.3216,-10.0317,0.1508,0.4429,-0.1061,-0.0711
15191,-1.3479,-10.0461,0.1820,0.4527,-0.1079,-0.0706
15199,-1.2977,-10.0389,0.1556,0.4562,-0.1050,-0.0711
15207,-1.3001,-10.0389,0.2011,0.4588,-0.1071,-0.0711
15215,-1.2833,-10.0628,0.1293,0.4679,-0.1079,-0.0717
15223,-1.3384,-10.1035,0.0934,0.4711,-0.1055,-0.0703
15230,-1.3360,-10.0916,0.1006,0.4751,-0.1010,-0.0685
15239,-1.3072,-10.1179,0.1197,0.4791,-0.1010,-0.0698
15247,-1.3024,-10.0676,0.1365,0.4804,-0.1002,-0.0711
15255,-1.3216,-10.1083,0.0670,0.4871,-0.0927,-0.0709
15263,-1.2809,-10.0796,0.1173,0.4892,-0.0943,-0.0727
15271,-1.2665,-10.0772,0.1245,0.4948,-0.0951,-0.0674
15279,-1.3551,-10.0676,0.1149,0.4962,-0.0898,-0.0677
15287,-1.2977,-10.1059,0.1149,0.5017,-0.0927,-0.0679
15295,-1.3264,-10.0820,0.1221,0.5041,-0.0882,-0.0663
15303,-1.3312,-10.0580,0.0168,0.5025,-0.0882,-0.0695
15311,-1.3216,-10.0676,0.1556,0.5049,-0.0863,-0.0645
15319,-1.3144,-10.1059,0.1820,0.5084,-0.0861,-0.0618
15327,-1.2977,-10.0604,0.0814,0.5079,-0.0863,-0.0602
15335,-1.2953,-10.0676,0.2083,0.5081,-0.0893,-0.0581
15343,-1.3216,-10.0533,0.1365,0.5060,-0.0842,-0.0584
15351,-1.3001,-10.0700,0.1030,0.5084,-0.0863,-0.0554
15360,-1.3336,-10.0844,0.1580,0.5065,-0.0850,-0.0538
15367,-1.3743,-10.0892,0.0982,0.5031,-0.0847,-0.0520
15375,-1.3072,-10.0245,0.1077,0.5009,-0.0863,-0.0501
15383,-1.3312,-10.0652,0.0814,0.5025,-0.0855,-0.0493
15391,-1.3336,-10.0389,0.1221,0.4980,-0.0871,-0.0458
15399,-1.3599,-10.0245,0.1724,0.4940,-0.0877,-0.0421
15407,-1.3120,-10.0437,0.0646,0.4882,-0.0935,-0.0434
15415,-1.3144,-9.9862,0.0599,0.4847,-0.0909,-0.0394
15423,-1.3072,-10.0987,0.1317,0.4847,-0.0887,-0.0370
15431,-1.2785,-10.0221,0.1844,0.4738,-0.0903,-0.0349
15439,-1.3024,-10.0580,0.0479,0.4703,-0.0917,-0.0325
15448,-1.2713,-9.9934,0.1676,0.4652,-0.0903,-0.0322
15455,-1.2809,-10.0461,0.0670,0.4565,-0.0895,-0.0298
15463,-1.3216,-9.9982,0.0383,0.4535,-0.0925,-0.0237
15471,-1.3072,-10.0772,0.0551,0.4453,-0.0922,-0.0224
15479,-1.2689,-9.9671,0.1844,0.4365,-0.0935,-0.0211
15488,-1.2761,-10.0461,0.1030,0.4314,-0.0911,-0.0195
15495,-1.3072,-10.0006,0.1006,0.4215,-0.0943,-0.0165
15503,-1.3001,-9.9240,0.0192,0.4151,-0.0919,-0.0155
15511,-1.3096,-10.0317,0.0886,0.4072,-0.0917,-0.0155
15519,-1.2929,-9.9742,0.1556,0.3997,-0.0903,-0.0147
15527,-1.3312,-10.0173,0.0814,0.3901,-0.0911,-0.0077
15535,-1.3336,-9.9886,0.0646,0.3840,-0.0874,-0.0053
15543,-1.2833,-9.9144,0.0910,0.3730,-0.0909,-0.0053
15551,-1.2378,-10.0078,0.0862,0.3659,-0.0909,0.0000
15559,-1.2641,-9.9192,0.1006,0.3539,-0.0869,0.0021
15567,-1.3096,-9.8737,0.1125,0.3464,-0.0885,0.0032
15576,-1.3216,-9.9072,0.0383,0.3379,-0.0863,0.0069
15583,-1.3120,-9.9048,0.0503,0.3277,-0.0861,0.0088
15591,-1.3527,-9.8402,0.1844,0.3206,-0.0831,0.0123
15599,-1.3360,-9.8593,0.1460,0.3118,-0.0826,0.0141
15607,-1.2546,-9.8881,0.0359,0.2987,-0.0802,0.0155
15616,-1.2737,-9.8641,0.0790,0.2899,-0.0791,0.0160
15623,-1.2881,-9.8043,0.1532,0.2785,-0.0735,0.0224
15631,-1.3144,-9.8450,0.0718,0.2678,-0.0738,0.0224
15639,-1.3240,-9.8450,0.1173,0.2579,-0.0674,0.0261
15647,-1.3288,-9.7923,0.1341,0.2489,-0.0687,0.0298
15655,-1.3360,-9.8497,0.1149,0.2369,-0.0650,0.0336
15664,-1.3168,-9.7947,0.0359,0.2262,-0.0629,0.0352
15671,-1.2570,-9.7875,0.1006,0.2158,-0.0586,0.0384
15679,-1.3168,-9.8162,0.0742,0.2052,-0.0568,0.0440
15687,-1.2665,-9.7947,0.0958,0.1953,-0.0544,0.0440
15695,-1.2857,-9.8354,0.0215,0.1788,-0.0498,0.0493
15704,-1.3001,-9.7755,0.0886,0.1697,-0.0466,0.0493
15711,-1.2450,-9.7683,0.0742,0.1548,-0.0482,0.0565
15719,-1.2402,-9.7444,0.0599,0.1399,-0.0437,0.0570
15727,-1.3096,-9.7564,0.0886,0.1292,-0.0370,0.0608
15735,-1.3048,-9.7205,0.1676,0.1194,-0.0346,0.0618
15744,-1.2546,-9.7420,0.0144,0.1058,-0.0280,0.0655
15752,-1.2570,-9.7707,-0.0024,0.0914,-0.0274,0.0693
15759,-1.2809,-9.7372,0.0383,0.0786,-0.0216,0.0698
15767,-1.2785,-9.7348,0.0527,0.0703,-0.0189,0.0733
15775,-1.2617,-9.7731,0.1293,0.0538,-0.0133,0.0765
15783,-1.2641,-9.7564,0.0670,0.0408,-0.0101,0.0781
15792,-1.2881,-9.7396,0.1125,0.0301,-0.0067,0.0794
15799,-1.2474,-9.7899,0.0694,0.0152,-0.0029,0.0805
15807,-1.2617,-9.7659,0.0575,0.0024,0.0008,0.0829
15815,-1.3192,-9.7420,0.0766,-0.0112,0.0059,0.0855
15823,-1.2115,-9.7348,0.1221,-0.0248,0.0080,0.0903
15832,-1.2833,-9.7540,0.0646,-0.0365,0.0109,0.0909
15840,-1.2713,-9.7229,0.0335,-0.0504,0.0157,0.0943
15847,-1.2881,-9.7659,0.0239,-0.0655,0.0211,0.0935
15855,-1.2665,-9.7229,0.0718,-0.0762,0.0232,0.0970
15863,-1.2857,-9.7947,-0.0144,-0.0877,0.0253,0.1007
15872,-1.3144,-9.7779,0.1867,-0.1031,0.0306,0.0994
15880,-1.2809,-9.7995,0.0455,-0.1135,0.0384,0.1034
15887,-1.2234,-9.7588,0.0503,-0.1279,0.0392,0.1034
15895,-1.3431,-9.7827,0.0910,-0.1439,0.0432,0.1069
15903,-1.2953,-9.7731,0.0886,-0.1532,0.0456,0.1079
15911,-1.2378,-9.7995,0.1077,-0.1615,0.0474,0.1100
15920,-1.2689,-9.7947,0.0766,-0.1793,0.0514,0.1103
15928,-1.3264,-9.8426,0.1269,-0.1895,0.0530,0.1178
15935,-1.3336,-9.8019,0.1101,-0.2044,0.0568,0.1164
15943,-1.3168,-9.8497,0.1269,-0.2156,0.0621,0.1183
15951,-1.2665,-9.8593,0.0694,-0.2273,0.0666,0.1212
15960,-1.2546,-9.8569,0.1724,-0.2438,0.0695,0.1236
15968,-1.2857,-9.8450,0.0670,-0.2566,0.0695,0.1250
15975,-1.3336,-9.8976,0.1293,-0.2665,0.0765,0.1274
15983,-1.3312,-9.8521,0.0479,-0.2739,0.0783,0.1279
15991,-1.2474,-9.9359,0.1796,-0.2843,0.0802,0.1268
16000,-1.1995,-9.8737,0.1796,-0.2952,0.0861,0.1263
16008,-1.2641,-9.8761,0.0862,-0.3064,0.0839,0.1252
16016,-1.2833,-9.8785,0.1077,-0.3198,0.0890,0.1284
16023,-1.3360,-9.8737,0.1628,-0.3251,0.0903,0.1298
16031,-1.2833,-9.8928,0.0718,-0.3328,0.0946,0.1306
16039,-1.3551,-9.9120,0.1389,-0.3397,0.0965,0.1244
16048,-1.3001,-9.8857,0.1915,-0.3499,0.1005,0.1284
16056,-1.2186,-9.9838,0.1437,-0.3579,0.0983,0.1271
16063,-1.2785,-9.9623,0.1987,-0.3621,0.1055,0.1252
16071,-1.3096,-9.9623,0.0646,-0.3688,0.1069,0.1228
16079,-1.3168,-10.0030,0.0742,-0.3741,0.1061,0.1255
16088,-1.2665,-9.9647,0.2059,-0.3834,0.1103,0.1284
16096,-1.2809,-10.0197,0.1460,-0.3840,0.1100,0.1244
16104,-1.2546,-10.0173,0.0814,-0.3920,0.1140,0.1260
16111,-1.2881,-9.9671,0.2155,-0.3976,0.1119,0.1239
16119,-1.3360,-9.9766,0.2203,-0.4026,0.1106,0.1239
16128,-1.3288,-10.0006,0.2490,-0.4064,0.1130,0.1250
16136,-1.2809,-9.9671,0.1269,-0.4133,0.1122,0.1242
16144,-1.2977,-9.9814,0.2203,-0.4175,0.1103,0.1239
16151,-1.3001,-10.0437,0.1676,-0.4234,0.1164,0.1220
16159,-1.2809,-9.9575,0.1149,-0.4266,0.1108,0.1218
16167,-1.3360,-10.0724,0.1245,-0.4349,0.1143,0.1196
16176,-1.3168,-10.0293,0.1389,-0.4346,0.1108,0.1223
16184,-1.2929,-10.0485,0.0838,-0.4410,0.1130,0.1226
16192,-1.3168,-10.0269,0.0192,-0.4485,0.1082,0.1223
16199,-1.3216,-10.0341,0.1317,-0.4466,0.1034,0.1226
16207,-1.3096,-10.0796,0.1197,-0.4527,0.1034,0.1194
16216,-1.2953,-10.1011,0.2059,-0.4580,0.1053,0.1191
16224,-1.2737,-10.0437,0.1915,-0.4628,0.0999,0.1215
16232,-1.2546,-10.0580,0.2083,-0.4628,0.1007,0.1172
16239,-1.2809,-10.0389,0.1508,-0.4698,0.0975,0.1156
16247,-1.3312,-10.0461,0.1796,-0.4724,0.0957,0.1154
16256,-1.3360,-10.0868,0.1891,-0.4748,0.0935,0.1146
16264,-1.2857,-10.0317,0.1724,-0.4780,0.0938,0.1146
16272,-1.2641,-9.9695,0.1269,-0.4807,0.0917,0.1127
16279,-1.3192,-10.1347,0.1963,-0.4812,0.0885,0.1132
16287,-1.2665,-10.0772,0.1724,-0.4834,0.0850,0.1122
16295,-1.3168,-10.1011,0.1508,-0.4799,0.0853,0.1119
16304,-1.2905,-10.0916,0.1844,-0.4815,0.0834,0.1090
16312,-1.3072,-10.1011,0.1293,-0.4794,0.0826,0.1055
16320,-1.3072,-10.0772,0.1700,-0.4818,0.0781,0.1031
16327,-1.3001,-10.0748,0.1317,-0.4791,0.0799,0.1010
16335,-1.3408,-10.0365,0.1484,-0.4743,0.0773,0.1013
16344,-1.3264,-10.0102,0.2562,-0.4719,0.0773,0.0981
16352,-1.3001,-10.0700,0.2442,-0.4700,0.0778,0.0933
16360,-1.2498,-10.0533,0.1269,-0.4671,0.0703,0.0941
16367,-1.2833,-10.0485,0.2274,-0.4612,0.0714,0.0922
16375,-1.2426,-10.0700,0.1149,-0.4591,0.0703,0.0890
16384,-1.2617,-10.0509,0.1556,-0.4525,0.0730,0.0871
16392,-1.3671,-10.0054,0.1748,-0.4471,0.0722,0.0831
16400,-1.2833,-10.0173,0.2705,-0.4391,0.0722,0.0829
16408,-1.2617,-10.0556,0.1484,-0.4357,0.0722,0.0818
16415,-1.2881,-9.9575,0.1532,-0.4271,0.0741,0.0754
16423,-1.2330,-9.9838,0.1724,-0.4186,0.0677,0.0735
16432,-1.3096,-10.0652,0.1939,-0.4157,0.0703,0.0711
16440,-1.2785,-9.9742,0.1460,-0.4064,0.0701,0.0698
16448,-1.2713,-9.9766,0.2729,-0.4000,0.0658,0.0687
16455,-1.2570,-9.9575,0.1987,-0.3901,0.0679,0.0632
16463,-1.2857,-9.9958,0.2059,-0.3824,0.0679,0.0581
16472,-1.3096,-10.0245,0.1963,-0.3784,0.0671,0.0605
16480,-1.3120,-9.9503,0.2610,-0.3675,0.0666,0.0570
16488,-1.3001,-9.9000,0.2251,-0.3581,0.0669,0.0536
16496,-1.2115,-9.9862,0.1700,-0.3509,0.0621,0.0549
16503,-1.2737,-9.9575,0.3184,-0.3440,0.0650,0.0522
16512,-1.2282,-9.8928,0.2346,-0.3333,0.0613,0.0477
16520,-1.3264,-9.8450,0.1820,-0.3259,0.0605,0.0477
16528,-1.2570,-9.9192,0.1748,-0.3187,0.0592,0.0469
16536,-1.2953,-9.8881,0.2155,-0.3094,0.0578,0.0429
16543,-1.1995,-9.8474,0.3136,-0.3030,0.0608,0.0413
16551,-1.2785,-9.9072,0.1460,-0.2923,0.0576,0.0370
16560,-1.2641,-9.8761,0.1748,-0.2795,0.0573,0.0328
16568,-1.2617,-9.8330,0.1556,-0.2715,0.0557,0.0354
16576,-1.2617,-9.8761,0.1628,-0.2614,0.0530,0.0309
16584,-1.2282,-9.8474,0.2346,-0.2526,0.0493,0.0304
16591,-1.2067,-9.8545,0.2490,-0.2417,0.0504,0.0240
16600,-1.2737,-9.8282,0.1987,-0.2300,0.0501,0.0218
16608,-1.2522,-9.7875,0.1844,-0.2252,0.0482,0.0189
16616,-1.2977,-9.8378,0.1604,-0.2110,0.0480,0.0173
16624,-1.2809,-9.7683,0.2346,-0.2006,0.0450,0.0152
16631,-1.2761,-9.7636,0.2155,-0.1897,0.0434,0.0131
16640,-1.2498,-9.8066,0.1676,-0.1807,0.0397,0.0080
16648,-1.1995,-9.8043,0.2418,-0.1647,0.0376,0.0085
16656,-1.2737,-9.8234,0.1867,-0.1524,0.0365,0.0091
16664,-1.2546,-9.7851,0.1676,-0.1418,0.0381,0.0011
16672,-1.3024,-9.8019,0.2203,-0.1282,0.0317,0.0029
16679,-1.2809,-9.7779,0.2753,-0.1154,0.0280,0.0000
16688,-1.1947,-9.7755,0.2394,-0.1013,0.0272,-0.0093
16696,-1.2139,-9.7995,0.2418,-0.0887,0.0250,-0.0109
16704,-1.3455,-9.7731,0.2346,-0.0778,0.0224,-0.0104
16712,-1.2761,-9.7779,0.2538,-0.0629,0.0203,-0.0152
16719,-1.2617,-9.8282,0.1844,-0.0490,0.0115,-0.0171
16728,-1.2857,-9.7564,0.1796,-0.0314,0.0123,-0.0208
16736,-1.3001,-9.7636,0.1556,-0.0211,0.0083,-0.0203
16744,-1.2881,-9.7516,0.1867,-0.0093,0.0048,-0.0229
16752,-1.3001,-9.8330,0.2538,0.0056,0.0008,-0.0264
16759,-1.2809,-9.7109,0.1844,0.0211,0.0011,-0.0274
16768,-1.1827,-9.7659,0.1963,0.0309,-0.0067,-0.0317
16776,-1.2953,-9.7276,0.1963,0.0464,-0.0064,-0.0317
16784,-1.2809,-9.7875,0.2203,0.0584,-0.0107,-0.0341
16792,-1.2977,-9.7947,0.2203,0.0717,-0.0173,-0.0362
16800,-1.2258,-9.7444,0.2155,0.0858,-0.0176,-0.0378
16807,-1.2761,-9.7659,0.2466,0.0986,-0.0226,-0.0376
16816,-1.1923,-9.7899,0.2586,0.1116,-0.0274,-0.0424
16824,-1.2115,-9.7803,0.1867,0.1223,-0.0309,-0.0424
16832,-1.2378,-9.8330,0.2179,0.1311,-0.0368,-0.0458
16840,-1.2617,-9.7731,0.1317,0.1463,-0.0394,-0.0464
16847,-1.3072,-9.8210,0.1628,0.1580,-0.0445,-0.0488
16856,-1.2378,-9.8306,0.2418,0.1724,-0.0480,-0.0490
16864,-1.2977,-9.7995,0.2658,0.1804,-0.0517,-0.0509
16872,-1.2665,-9.8043,0.1748,0.1943,-0.0560,-0.0541
16880,-1.2378,-9.8450,0.1987,0.2076,-0.0592,-0.0544
16888,-1.2953,-9.8569,0.1389,0.2182,-0.0655,-0.0557
16896,-1.2258,-9.8306,0.0934,0.2276,-0.0695,-0.0568
16904,-1.2641,-9.8402,0.2322,0.2414,-0.0695,-0.0552
16912,-1.2498,-9.8354,0.1652,0.2526,-0.0757,-0.0581
16920,-1.2737,-9.8497,0.2035,0.2638,-0.0815,-0.0594
16928,-1.2761,-9.8665,0.0359,0.2702,-0.0802,-0.0597
16935,-1.2306,-9.8665,0.1820,0.2809,-0.0874,-0.0594
16944,-1.2881,-9.8833,0.1532,0.2939,-0.0882,-0.0610
16952,-1.2953,-9.8857,0.2825,0.3038,-0.0943,-0.0594
16960,-1.3048,-9.9120,0.1772,0.3088,-0.0965,-0.0605
16968,-1.3384,-9.9144,0.1724,0.3216,-0.0943,-0.0586
16976,-1.3024,-9.9479,0.1030,0.3259,-0.0994,-0.0600
16984,-1.2498,-9.9240,0.3017,0.3381,-0.1015,-0.0594
16992,-1.3336,-9.9264,0.1101,0.3416,-0.1015,-0.0597
17000,-1.3048,-9.9311,0.1532,0.3485,-0.1039,-0.0594
17008,-1.2713,-9.9264,0.1867,0.3571,-0.1013,-0.0600
17016,-1.3408,-9.9240,0.1867,0.3653,-0.1026,-0.0613
17024,-1.2474,-9.9695,0.2083,0.3746,-0.0997,-0.0600
17032,-1.2833,-9.9120,0.1413,0.3792,-0.1026,-0.0616
17040,-1.2977,-9.9718,0.2346,0.3853,-0.1018,-0.0616
17048,-1.3048,-9.9575,0.1963,0.3922,-0.1042,-0.0634
17056,-1.3192,-10.0006,0.2035,0.3992,-0.1055,-0.0621
17064,-1.3671,-9.9838,0.1796,0.4061,-0.1023,-0.0640
17072,-1.2713,-9.9359,0.1437,0.4088,-0.1029,-0.0624
17080,-1.2881,-10.0197,0.0862,0.4149,-0.0997,-0.0658
17088,-1.2330,-9.9814,-0.0024,0.4191,-0.1015,-0.0663
17096,-1.3455,-10.0030,0.1532,0.4242,-0.0989,-0.0621
17104,-1.2354,-10.0126,0.1197,0.4271,-0.0970,-0.0624
17112,-1.3168,-10.0197,0.1987,0.4335,-0.0925,-0.0621
17120,-1.2522,-10.0413,0.1101,0.4365,-0.0965,-0.0629
17128,-1.3264,-10.0341,0.1077,0.4405,-0.0919,-0.0640
17136,-1.3288,-10.0676,0.1365,0.4431,-0.0919,-0.0634
17144,-1.3623,-10.0126,0.1173,0.4458,-0.0911,-0.0597
17153,-1.2881,-10.0461,0.0790,0.4511,-0.0882,-0.0645
17160,-1.3503,-10.0437,0.1365,0.4530,-0.0871,-0.0586
17168,-1.2689,-9.9958,0.1269,0.4562,-0.0861,-0.0586
17176,-1.3192,-10.0509,0.1341,0.4596,-0.0831,-0.0589
17184,-1.3096,-10.0604,0.1700,0.4626,-0.0866,-0.0581
17192,-1.3240,-10.0676,0.1963,0.4626,-0.0847,-0.0592
17200,-1.2522,-9.9814,0.1437,0.4628,-0.0866,-0.0554
17208,-1.2857,-10.0652,0.1030,0.4679,-0.0831,-0.0552
17216,-1.2594,-10.0868,0.1125,0.4684,-0.0815,-0.0512
17224,-1.3431,-10.0365,0.0503,0.4639,-0.0847,-0.0514
17232,-1.2857,-9.9886,0.1197,0.4690,-0.0831,-0.0496
17241,-1.3455,-10.0604,0.1676,0.4671,-0.0839,-0.0485
17248,-1.3575,-10.0556,0.0239,0.4663,-0.0823,-0.0442
17256,-1.3168,-9.9527,0.0838,0.4676,-0.0818,-0.0429
17264,-1.3192,-10.0413,0.0886,0.4658,-0.0813,-0.0448
17272,-1.2689,-10.0413,0.1365,0.4618,-0.0834,-0.0424
17281,-1.3479,-10.0054,0.0431,0.4594,-0.0805,-0.0392
17288,-1.3288,-10.0293,0.1580,0.4570,-0.0837,-0.0378
17296,-1.3264,-10.0556,0.0311,0.4519,-0.0829,-0.0330
17304,-1.3192,-10.0485,0.0790,0.4485,-0.0834,-0.0341
17312,-1.3336,-10.0317,0.1365,0.4450,-0.0810,-0.0336
17320,-1.2977,-9.9910,0.1221,0.4394,-0.0845,-0.0285
17328,-1.3862,-10.0341,0.0790,0.4365,-0.0831,-0.0282
17336,-1.2929,-9.9958,0.1484,0.4295,-0.0799,-0.0256
17344,-1.3408,-10.0173,0.0934,0.4258,-0.0810,-0.0234
17352,-1.2785,-10.0126,0.0599,0.4199,-0.0831,-0.0187
17360,-1.2833,-10.0006,0.0479,0.4128,-0.0834,-0.0179
17369,-1.2761,-9.9695,0.0982,0.4061,-0.0826,-0.0144
17376,-1.3072,-9.9671,0.0862,0.3997,-0.0831,-0.0107
17384,-1.3024,-9.9742,0.1006,0.3938,-0.0858,-0.0101
17392,-1.2785,-9.9311,0.0455,0.3893,-0.0837,-0.0104
17400,-1.3192,-9.9096,0.1508,0.3805,-0.0850,-0.0085
17409,-1.2737,-9.9240,0.0742,0.3717,-0.0847,-0.0051
17416,-1.2857,-9.9718,0.0718,0.3656,-0.0839,-0.0032
17424,-1.3192,-9.9000,0.1006,0.3573,-0.0826,0.0019
17432,-1.2378,-9.8474,0.1437,0.3491,-0.0834,0.0027
17440,-1.2785,-9.9240,0.1389,0.3384,-0.0807,0.0019
17448,-1.2498,-9.9311,0.0168,0.3317,-0.0807,0.0053
17457,-1.3168,-9.9359,0.0263,0.3224,-0.0794,0.0077
17464,-1.3168,-9.9192,0.1077,0.3168,-0.0797,0.0112
17472,-1.2953,-9.8833,0.0934,0.3072,-0.0765,0.0109
17480,-1.2857,-9.8426,0.1317,0.2968,-0.0765,0.0173
17488,-1.2905,-9.8521,0.1125,0.2888,-0.0783,0.0197
17497,-1.2570,-9.8857,0.0862,0.2817,-0.0738,0.0195
17504,-1.2546,-9.8426,0.1437,0.2710,-0.0703,0.0248
17512,-1.3096,-9.8713,0.0383,0.2601,-0.0695,0.0277
17520,-1.2570,-9.8474,-0.0048,0.2529,-0.0669,0.0288
17528,-1.2857,-9.8306,0.0503,0.2446,-0.0666,0.0309
17537,-1.2282,-9.7779,0.0646,0.2358,-0.0629,0.0322
17545,-1.3288,-9.8593,0.1149,0.2246,-0.0626,0.0370
17552,-1.2905,-9.8210,0.0622,0.2137,-0.0597,0.0384
17560,-1.2881,-9.8162,0.0934,0.2012,-0.0552,0.0426
17568,-1.3144,-9.7779,0.0886,0.1937,-0.0554,0.0461
17576,-1.2426,-9.7683,0.0622,0.1833,-0.0504,0.0506
17585,-1.2761,-9.8043,0.1101,0.1713,-0.0501,0.0472
17592,-1.2809,-9.8330,0.0551,0.1620,-0.0440,0.0546
17600,-1.2498,-9.7755,0.0670,0.1482,-0.0416,0.0560
17608,-1.3120,-9.8234,0.0311,0.1348,-0.0368,0.0594
17616,-1.2450,-9.8019,0.0790,0.1282,-0.0376,0.0613
17625,-1.2737,-9.7564,0.1053,0.1132,-0.0322,0.0640
17633,-1.2737,-9.7827,0.0694,0.1005,-0.0248,0.0701
17640,-1.2426,-9.7731,0.0527,0.0925,-0.0226,0.0701
17648,-1.3001,-9.7779,0.0168,0.0775,-0.0216,0.0725
17656,-1.2474,-9.8162,0.0814,0.0666,-0.0155,0.0719
17665,-1.2570,-9.7683,0.0646,0.0554,-0.0139,0.0775
17673,-1.3288,-9.7372,0.0335,0.0440,-0.0139,0.0773
17680,-1.3001,-9.7612,0.0096,0.0306,-0.0051,0.0765
17688,-1.3288,-9.8066,0.0766,0.0163,-0.0043,0.0802
17696,-1.2881,-9.7755,0.0958,0.0061,0.0045,0.0869
17704,-1.2881,-9.7659,0.1077,-0.0064,0.0072,0.0855
17713,-1.2857,-9.7348,0.2035,-0.0181,0.0117,0.0879
17721,-1.2977,-9.7636,0.0958,-0.0304,0.0107,0.0893
17728,-1.3144,-9.7085,0.0455,-0.0426,0.0165,0.0914
17736,-1.2785,-9.7851,0.0335,-0.0533,0.0203,0.0957
17744,-1.2689,-9.7875,0.1197,-0.0655,0.0242,0.0949
17753,-1.2713,-9.7659,0.0934,-0.0786,0.0288,0.0954
17761,-1.2402,-9.7971,0.0215,-0.0882,0.0336,0.0989
17768,-1.2833,-9.7971,0.0407,-0.1018,0.0317,0.0991
17776,-1.2091,-9.7731,0.1748,-0.1111,0.0373,0.1029
17784,-1.2426,-9.7683,0.1101,-0.1226,0.0437,0.1047
17793,-1.2929,-9.7564,0.0551,-0.1346,0.0442,0.1037
17801,-1.2809,-9.7468,-0.0120,-0.1463,0.0506,0.1085
17808,-1.3168,-9.8043,0.1676,-0.1612,0.0538,0.1108
17816,-1.2785,-9.8210,0.0383,-0.1727,0.0530,0.1124
17824,-1.2737,-9.8090,0.0383,-0.1825,0.0589,0.1132
17832,-1.2857,-9.7947,0.0359,-0.1932,0.0613,0.1151
17841,-1.2833,-9.8043,0.0910,-0.2065,0.0637,0.1164
17849,-1.2809,-9.8354,0.0024,-0.2169,0.0648,0.1202
17856,-1.3192,-9.8713,0.1245,-0.2284,0.0709,0.1199
17864,-1.2713,-9.8066,0.0838,-0.2390,0.0717,0.1172
17872,-1.2977,-9.8426,0.1508,-0.2475,0.0711,0.1202
17881,-1.2641,-9.8545,0.1580,-0.2590,0.0746,0.1228
17889,-1.2785,-9.8569,0.1149,-0.2702,0.0770,0.1231
17896,-1.3001,-9.8809,0.1149,-0.2779,0.0794,0.1218
17904,-1.2378,-9.8641,0.1365,-0.2878,0.0802,0.1231
17912,-1.2953,-9.8881,0.0790,-0.2950,0.0831,0.1204
17921,-1.2641,-9.9503,0.1915,-0.3046,0.0839,0.1204
17929,-1.2905,-9.8474,0.0503,-0.3123,0.0847,0.1215
17937,-1.2306,-9.9311,0.0934,-0.3190,0.0914,0.1223
17944,-1.2402,-9.8952,0.1748,-0.3293,0.0930,0.1239
17952,-1.3096,-9.9240,0.1293,-0.3339,0.0914,0.1204
17960,-1.2570,-9.9216,0.1413,-0.3381,0.0909,0.1207
17969,-1.2857,-9.9288,0.1413,-0.3437,0.0949,0.1212
17977,-1.2354,-9.9264,0.0982,-0.3509,0.0927,0.1191
17984,-1.2402,-9.9264,0.1748,-0.3552,0.0962,0.1212
17992,-1.2641,-9.9072,0.0886,-0.3613,0.0951,0.1191
18000,-1.4126,-9.9599,0.1437,-0.3680,0.0927,0.1191
18009,-1.2953,-9.9288,0.1891,-0.3733,0.0959,0.1180
18017,-1.2594,-10.0006,0.0982,-0.3768,0.0983,0.1186
18025,-1.2641,-9.9551,0.1772,-0.3816,0.0981,0.1178
18032,-1.3096,-9.9766,0.0431,-0.3848,0.0954,0.1178
18040,-1.3360,-10.0126,0.1341,-0.3888,0.0951,0.1159
18049,-1.3192,-9.9958,0.0742,-0.3938,0.0967,0.1170
18057,-1.3072,-10.0078,0.1437,-0.3965,0.0906,0.1159
18065,-1.2977,-9.9575,0.0790,-0.4045,0.0925,0.1162
18072,-1.3072,-9.9982,0.1460,-0.4056,0.0917,0.1124
18080,-1.2977,-10.0054,0.1317,-0.4106,0.0922,0.1154
18088,-1.2522,-9.9671,0.1724,-0.4170,0.0917,0.1124
18097,-1.3312,-9.9814,0.1676,-0.4191,0.0911,0.1146
18105,-1.2498,-10.0341,0.1173,-0.4221,0.0847,0.1130
18113,-1.2953,-10.0221,0.2514,-0.4247,0.0911,0.1122
18120,-1.3288,-10.0078,0.1556,-0.4279,0.0871,0.1119
18128,-1.3599,-10.0628,0.1939,-0.4314,0.0842,0.1108
18137,-1.2905,-10.0149,0.2274,-0.4359,0.0847,0.1108
18145,-1.3192,-10.0317,0.1820,-0.4354,0.0853,0.1085
18153,-1.2761,-10.0365,0.1772,-0.4386,0.0823,0.1074
18160,-1.2809,-10.0197,0.2490,-0.4429,0.0805,0.1069
18168,-1.2546,-10.0245,0.2490,-0.4402,0.0799,0.1039
18177,-1.3144,-10.0533,0.1915,-0.4458,0.0799,0.1026
18185,-1.2354,-10.1059,0.1173,-0.4413,0.0810,0.1010
18193,-1.2665,-10.0078,0.1197,-0.4405,0.0781,0.1023
18201,-1.3503,-10.0197,0.1556,-0.4450,0.0786,0.0997
18208,-1.2546,-10.0389,0.0646,-0.4426,0.0778,0.0986
18216,-1.2617,-10.0485,0.1125,-0.4399,0.0773,0.0941
18225,-1.3144,-10.0078,0.2346,-0.4381,0.0781,0.0925
18233,-1.3144,-9.9718,0.1197,-0.4362,0.0767,0.0917
18241,-1.2617,-10.0485,0.1389,-0.4343,0.0757,0.0922
18248,-1.2929,-10.0628,0.1891,-0.4298,0.0741,0.0901
18256,-1.2354,-10.0341,0.1844,-0.4287,0.0746,0.0821
18265,-1.2282,-10.0030,0.1724,-0.4205,0.0701,0.0823
18273,-1.2713,-9.9910,0.1700,-0.4186,0.0727,0.0789
18281,-1.3575,-10.0006,0.2538,-0.4130,0.0717,0.0791
18289,-1.2067,-10.0054,0.2203,-0.4093,0.0730,0.0757
18296,-1.2833,-9.9671,0.1221,-0.4010,0.0695,0.0751
18305,-1.2857,-9.9288,0.0599,-0.3946,0.0695,0.0738
18313,-1.3240,-9.9455,0.2466,-0.3888,0.0685,0.0685
18321,-1.3144,-9.9910,0.2274,-0.3834,0.0711,0.0648
18329,-1.2594,-9.9766,0.2801,-0.3733,0.0666,0.0626
18336,-1.2761,-9.9551,0.1748,-0.3680,0.0677,0.0602
18344,-1.3072,-9.9264,0.2083,-0.3605,0.0650,0.0594
18353,-1.2426,-9.9240,0.2227,-0.3555,0.0661,0.0552
18361,-1.3001,-9.9527,0.2514,-0.3480,0.0642,0.0578
18369,-1.2833,-9.9096,0.2658,-0.3392,0.0653,0.0528
18377,-1.2977,-9.9144,0.1341,-0.3352,0.0642,0.0496
18384,-1.2426,-9.9431,0.2035,-0.3256,0.0613,0.0477
18393,-1.2570,-9.9431,0.2298,-0.3182,0.0621,0.0458
18401,-1.2594,-9.9311,0.1221,-0.3096,0.0592,0.0464
18409,-1.2498,-9.9048,0.1700,-0.3051,0.0557,0.0445
18417,-1.2617,-9.8713,0.2203,-0.2939,0.0546,0.0421
18424,-1.2881,-9.8833,0.1867,-0.2851,0.0560,0.0376
18433,-1.1660,-9.8952,0.1030,-0.2811,0.0522,0.0349
18441,-1.2426,-9.9168,0.2298,-0.2699,0.0512,0.0325
18449,-1.2713,-9.8617,0.1987,-0.2595,0.0517,0.0312
18457,-1.2689,-9.9311,0.1628,-0.2526,0.0485,0.0277
18464,-1.2354,-9.9216,0.2155,-0.2438,0.0477,0.0264
18472,-1.2402,-9.8952,0.2059,-0.2358,0.0450,0.0221
18481,-1.2905,-9.8689,0.1987,-0.2289,0.0429,0.0226
18489,-1.2737,-9.7971,0.2251,-0.2182,0.0400,0.0176
18497,-1.2953,-9.8641,0.2251,-0.2009,0.0402,0.0163
18505,-1.2857,-9.8521,0.1700,-0.1966,0.0405,0.0163
18512,-1.2785,-9.8210,0.2251,-0.1879,0.0378,0.0115
18521,-1.2426,-9.8234,0.2059,-0.1777,0.0328,0.0104
18529,-1.2330,-9.7875,0.2897,-0.1655,0.0346,0.0093
18537,-1.2546,-9.8186,0.2921,-0.1535,0.0293,0.0035
18545,-1.2594,-9.8689,0.2490,-0.1431,0.0274,0.0035
18552,-1.2091,-9.8354,0.2155,-0.1303,0.0282,0.0008
18561,-1.2258,-9.8019,0.1604,-0.1215,0.0253,-0.0027
18569,-1.2594,-9.7731,0.2107,-0.1114,0.0216,-0.0053
18577,-1.2570,-9.7779,0.2753,-0.0986,0.0173,-0.0099
18585,-1.2570,-9.7827,0.2346,-0.0861,0.0187,-0.0109
18593,-1.2594,-9.8497,0.2418,-0.0730,0.0139,-0.0144
18600,-1.2139,-9.8043,0.2466,-0.0616,0.0112,-0.0152
18609,-1.2474,-9.7779,0.2059,-0.0477,0.0077,-0.0160
18617,-1.2378,-9.7755,0.2203,-0.0362,0.0059,-0.0211
18625,-1.3024,-9.8138,0.1820,-0.0234,0.0035,-0.0229
18633,-1.2378,-9.8210,0.1269,-0.0112,0.0021,-0.0245
18640,-1.2378,-9.7516,0.2322,0.0011,-0.0027,-0.0245
18649,-1.2617,-9.8138,0.1963,0.0131,-0.0040,-0.0269
18657,-1.2617,-9.7827,0.2538,0.0248,-0.0101,-0.0296
18665,-1.3120,-9.7827,0.1580,0.0389,-0.0141,-0.0336
18673,-1.3216,-9.7564,0.1484,0.0504,-0.0163,-0.0354
18681,-1.2163,-9.6941,0.2203,0.0616,-0.0192,-0.0338
18689,-1.2953,-9.7899,0.1844,0.0727,-0.0232,-0.0392
18697,-1.2450,-9.7827,0.1820,0.0861,-0.0245,-0.0384
18705,-1.2833,-9.8114,0.2897,0.0999,-0.0293,-0.0402
18713,-1.2450,-9.8450,0.2035,0.1074,-0.0344,-0.0384
18721,-1.2929,-9.7827,0.1484,0.1244,-0.0357,-0.0429
18728,-1.2139,-9.7947,0.1652,0.1324,-0.0386,-0.0448
18737,-1.2713,-9.8234,0.2227,0.1436,-0.0437,-0.0469
18745,-1.2163,-9.8066,0.1508,0.1529,-0.0456,-0.0482
