Timestamp,AccelX,AccelY,AccelZ,GyroX,GyroY,GyroZ
407,0.2274,-9.1339,-3.7876,0.0101,-0.0330,-0.0123
414,0.1101,-9.0453,-3.7733,0.0131,-0.0037,-0.0083
422,0.1006,-9.1530,-3.8499,0.0226,-0.0019,0.0043
431,0.1676,-9.1411,-3.8331,0.0197,-0.0011,0.0045
438,0.0958,-9.1387,-3.7852,0.0179,0.0037,-0.0011
446,0.0503,-9.0644,-3.7852,0.0120,0.0000,0.0024
454,0.0503,-9.1267,-3.6703,0.0037,-0.0165,0.0104
462,0.0383,-9.1099,-3.6727,0.0045,-0.0229,0.0181
471,0.0455,-9.1602,-3.6990,0.0053,-0.0157,0.0306
479,-0.0048,-9.2249,-3.7685,0.0136,0.0000,0.0333
486,0.0239,-9.1889,-3.6033,0.0184,0.0131,0.0312
494,0.0287,-9.2153,-3.6895,0.0213,0.0213,0.0344
502,-0.0455,-9.1818,-3.6871,0.0229,0.0208,0.0394
510,-0.1221,-9.1482,-3.5745,0.0224,0.0147,0.0480
519,-0.0718,-9.1099,-3.7158,0.0189,0.0123,0.0602
526,-0.0527,-9.1315,-3.6775,0.0184,0.0088,0.0730
534,0.0239,-9.2464,-3.7254,0.0179,-0.0043,0.0815
542,0.0407,-9.2632,-3.7110,0.0109,-0.0109,0.0775
550,-0.0790,-9.2368,-3.7565,0.0075,-0.0120,0.0685
559,-0.0646,-9.2943,-3.6727,0.0077,-0.0117,0.0733
567,0.0144,-9.3182,-3.7469,0.0069,-0.0240,0.0690
574,0.1891,-9.3494,-3.7733,0.0067,-0.0365,0.0578
582,0.2705,-9.3326,-3.7302,0.0085,-0.0298,0.0402
590,0.2274,-9.2871,-3.7014,0.0136,-0.0099,0.0253
599,0.2322,-9.2464,-3.7613,0.0160,0.0064,0.0181
607,0.0910,-9.1267,-3.8259,0.0085,0.0051,0.0093
614,0.0431,-9.1674,-3.6871,0.0080,0.0061,0.0043
622,0.0886,-9.1458,-3.6081,0.0013,0.0032,0.0040
630,0.0263,-9.1913,-3.7206,0.0005,0.0011,0.0091
638,-0.0622,-9.2727,-3.6200,-0.0045,-0.0011,0.0141
647,0.0646,-9.2703,-3.6009,-0.0051,-0.0091,0.0203
655,0.1149,-9.2488,-3.6536,-0.0040,-0.0109,0.0176
662,0.1341,-9.2680,-3.6464,0.0016,-0.0072,0.0101
670,0.0646,-9.1554,-3.7541,0.0027,0.0024,0.0085
678,-0.0527,-9.1674,-3.7876,0.0045,-0.0005,0.0136
687,-0.1101,-9.1530,-3.7852,0.0032,0.0045,0.0213
695,-0.1844,-9.1411,-3.7445,-0.0032,0.0099,0.0298
702,-0.1532,-9.1746,-3.5985,-0.0067,0.0093,0.0445
710,-0.0958,-9.1866,-3.6488,-0.0144,0.0019,0.0573
718,-0.0072,-9.2632,-3.6416,-0.0173,-0.0077,0.0584
727,0.0886,-9.2656,-3.6703,-0.0208,-0.0179,0.0584
735,0.0239,-9.3709,-3.6559,-0.0115,-0.0040,0.0602
743,0.0120,-9.3470,-3.6488,-0.0083,0.0059,0.0632
750,0.0479,-9.2344,-3.7134,-0.0005,0.0131,0.0589
758,0.0263,-9.2249,-3.6536,0.0024,0.0179,0.0496
766,-0.0168,-9.2129,-3.6895,0.0043,0.0123,0.0397
775,-0.0694,-9.2009,-3.7206,-0.0048,0.0056,0.0341
783,-0.0503,-9.1578,-3.5889,-0.0080,-0.0072,0.0312
790,0.0000,-9.1458,-3.7014,-0.0099,-0.0274,0.0322
798,0.0287,-9.1889,-3.6655,-0.0133,-0.0469,0.0325
806,0.0431,-9.2823,-3.6416,-0.0085,-0.0512,0.0240
815,0.0599,-9.2656,-3.6655,-0.0008,-0.0472,0.0211
823,0.0239,-9.2703,-3.6727,0.0051,-0.0328,0.0176
830,0.0934,-9.1842,-3.7110,0.0139,-0.0261,0.0147
838,0.1221,-9.1937,-3.6536,0.0179,-0.0197,0.0056
846,0.0718,-9.1435,-3.7421,0.0171,-0.0229,0.0003
855,-0.0048,-9.1482,-3.8044,0.0072,-0.0250,0.0021
863,0.0503,-9.1075,-3.7254,-0.0005,-0.0370,0.0123
871,-0.0048,-9.1339,-3.6559,-0.0125,-0.0488,0.0253
878,0.0694,-9.2009,-3.6703,-0.0195,-0.0562,0.0416
886,0.2466,-9.2871,-3.6416,-0.0187,-0.0573,0.0514
894,0.2346,-9.3326,-3.5626,-0.0075,-0.0376,0.0496
903,0.2634,-9.3685,-3.5961,0.0016,-0.0157,0.0394
911,0.3184,-9.3158,-3.6488,0.0112,-0.0077,0.0258
918,0.2610,-9.2129,-3.6224,0.0171,-0.0037,0.0152
926,0.2346,-9.2249,-3.6536,0.0288,0.0115,0.0037
934,0.1556,-9.1578,-3.7996,0.0309,0.0306,-0.0051
943,-0.0215,-9.0932,-3.7517,0.0221,0.0354,0.0003
951,-0.0479,-8.9830,-3.7517,0.0128,0.0280,0.0213
959,-0.1197,-9.0453,-3.7637,-0.0008,0.0226,0.0498
966,-0.1317,-9.1219,-3.7804,-0.0061,0.0248,0.0671
974,-0.1269,-9.1961,-3.7110,-0.0061,0.0349,0.0813
983,-0.1125,-9.2153,-3.6583,-0.0021,0.0277,0.0861
991,-0.0024,-9.2967,-3.6057,-0.0011,0.0120,0.0802
999,0.1532,-9.3350,-3.6081,0.0027,-0.0040,0.0592
1006,0.1891,-9.3158,-3.6009,0.0061,-0.0085,0.0328
1014,0.0814,-9.2919,-3.5913,0.0181,-0.0037,0.0091
1022,0.0263,-9.2392,-3.6847,0.0200,-0.0184,-0.0067
1031,0.0455,-9.2296,-3.7134,0.0088,-0.0437,-0.0136
1039,0.1293,-9.1530,-3.8571,0.0040,-0.0557,-0.0133
1047,0.0048,-9.1267,-3.8331,0.0021,-0.0434,-0.0013
1054,-0.0646,-9.1219,-3.7996,0.0019,-0.0155,0.0200
1062,0.0120,-9.1051,-3.8666,0.0035,-0.0075,0.0338
1071,0.0144,-9.1674,-3.7613,0.0035,-0.0096,0.0400
1079,0.0527,-9.1602,-3.7182,0.0024,-0.0128,0.0418
1087,0.0215,-9.1722,-3.6224,0.0016,-0.0072,0.0424
1094,0.0192,-9.2632,-3.5793,0.0037,0.0013,0.0434
1102,-0.0024,-9.2751,-3.6248,0.0003,0.0027,0.0466
1111,-0.0263,-9.3302,-3.6320,0.0011,0.0109,0.0482
1119,-0.0575,-9.3015,-3.6344,0.0032,0.0208,0.0546
1127,-0.0670,-9.3039,-3.6129,0.0032,0.0306,0.0533
1135,0.0790,-9.2392,-3.5961,0.0099,0.0285,0.0498
1142,0.2969,-9.2751,-3.4572,0.0163,0.0115,0.0261
1150,0.5363,-9.2919,-3.5434,0.0306,-0.0128,-0.0109
1159,0.5650,-9.2536,-3.5769,0.0354,-0.0173,-0.0464
1167,0.3448,-9.2057,-3.5219,0.0402,-0.0072,-0.0576
1175,0.3089,-9.2416,-3.5195,0.0418,0.0125,-0.0549
1182,0.0910,-9.3877,-3.3375,0.0389,0.0067,-0.0325
1190,-0.1149,-9.2799,-3.7206,0.0525,0.0877,-0.0224
1199,-0.3472,-8.8514,-4.0677,0.0839,0.1948,0.0192
1207,-0.4860,-9.1626,-3.7302,0.0775,0.2233,0.0741
1215,-0.7230,-9.0668,-3.6105,0.0890,0.1436,0.1687
1223,-0.6823,-9.0142,-3.5243,0.1303,0.0975,0.2268
1230,-0.1844,-9.4188,-3.7517,0.1420,0.1239,0.2467
1239,-0.4310,-9.3206,-3.6440,0.1849,0.1793,0.2758
1247,0.0000,-8.9735,-1.8818,0.3192,0.2734,0.2766
1255,-1.7502,-7.8745,6.0765,0.8708,-0.0682,0.3616
1263,-1.9489,-9.1794,-2.4062,1.1431,-0.8306,0.5782
1270,-0.6632,-9.5720,-4.8052,0.7669,-1.4957,0.6736
1278,1.1540,-10.0389,-4.8363,0.3773,-1.8114,0.5545
1287,1.2522,-10.1155,-4.0893,0.2356,-1.9004,0.4381
1295,-2.8491,-9.8114,-1.3479,0.3661,-1.7040,0.5375
1303,-1.6879,-9.0046,-2.0662,0.3858,-1.4138,0.7346
1311,-1.6424,-8.7221,-2.1404,0.2345,-1.4400,0.8892
1318,-1.5131,-9.1243,-0.8092,0.0250,-1.5852,1.0064
1327,-1.4246,-9.6630,-0.1700,-0.0757,-1.6430,1.0778
1335,-0.8068,-9.3661,-0.1556,-0.0610,-1.6252,1.0608
1343,-0.6153,-8.8777,-0.0599,-0.0477,-1.5463,0.9846
1351,-0.5531,-8.7724,0.0168,-0.0322,-1.5199,0.8903
1358,-0.5195,-8.9208,0.0000,-0.0240,-1.5332,0.7767
1367,-0.4549,-9.0812,-0.0479,-0.0211,-1.5740,0.6614
1375,-0.3424,-9.3661,0.0287,0.0107,-1.4938,0.5225
1383,-0.4597,-9.6989,0.2370,0.0829,-1.3206,0.3858
1391,-0.4190,-9.9671,0.1700,0.1737,-1.1018,0.2539
1399,-0.5794,-10.1849,0.1006,0.2276,-0.9478,0.1338
1406,-0.8164,-10.1586,0.1197,0.2558,-0.8609,0.0402
1415,-1.0367,-10.0987,0.2274,0.2910,-0.8426,-0.0176
1423,-1.1133,-10.0509,0.4357,0.3515,-0.8402,-0.0557
1431,-1.1181,-9.9503,0.5459,0.4455,-0.8114,-0.0834
1439,-1.0894,-9.7444,0.4166,0.5420,-0.7293,-0.1122
1446,-1.0750,-9.5816,0.1484,0.6331,-0.6326,-0.1327
1455,-1.1109,-9.5960,0.1508,0.7091,-0.5279,-0.1423
1463,-1.2186,-9.5888,0.1341,0.7698,-0.4117,-0.1460
1471,-1.1301,-9.6582,-0.0766,0.8146,-0.2856,-0.1426
1479,-1.1875,-9.8019,-0.1101,0.8319,-0.1663,-0.1346
1487,-1.1612,-9.9479,-0.3328,0.8116,-0.0586,-0.1372
1495,-1.1540,-10.0413,-0.4573,0.7592,0.0306,-0.1442
1503,-1.0894,-10.1586,-0.4453,0.6928,0.1175,-0.1617
1511,-1.0127,-10.2089,-0.3974,0.6384,0.2217,-0.1982
1519,-0.9577,-10.3430,-0.3041,0.6094,0.3240,-0.2521
1527,-0.8811,-10.3573,-0.1245,0.6054,0.4255,-0.3123
1534,-0.9720,-10.3094,0.0287,0.6254,0.5097,-0.3714
1543,-1.0391,-10.3262,0.2203,0.6702,0.5734,-0.4197
1551,-1.1109,-10.3262,0.3496,0.7408,0.6230,-0.4493
1559,-1.2833,-10.3214,0.4094,0.8260,0.6624,-0.4586
1567,-1.4269,-10.2568,0.4621,0.9102,0.6893,-0.4426
1574,-1.5203,-10.3118,0.3232,0.9872,0.6805,-0.4104
1583,-1.5562,-10.3789,0.3041,1.0483,0.6598,-0.3584
1591,-1.6735,-10.3932,0.2562,1.0938,0.6358,-0.2936
1599,-1.7190,-10.3549,0.2777,1.1282,0.6238,-0.2185
1607,-1.6735,-10.4100,0.1221,1.1564,0.6294,-0.1316
1615,-1.6927,-10.3597,0.0622,1.1671,0.6294,-0.0469
1623,-1.7310,-10.4004,0.2083,1.1703,0.6174,0.0410
1631,-1.6376,-10.3813,0.1317,1.1671,0.5915,0.1218
1639,-1.6424,-10.5201,0.0814,1.1567,0.5553,0.1892
1647,-1.5060,-10.5297,0.0718,1.1455,0.5183,0.2451
1655,-1.4126,-10.6398,0.0766,1.1335,0.4866,0.2766
1662,-1.3503,-10.7835,0.0168,1.1247,0.4572,0.2920
1671,-1.2929,-10.8026,0.1317,1.1258,0.4317,0.2899
1679,-1.2713,-10.8816,0.1867,1.1287,0.4101,0.2817
1687,-1.2378,-10.9846,0.1748,1.1354,0.3786,0.2699
1695,-1.2498,-10.9559,0.2418,1.1525,0.3429,0.2569
1703,-1.2881,-10.9559,0.2131,1.1663,0.2998,0.2441
1711,-1.2354,-10.9678,0.2011,1.1815,0.2486,0.2308
1719,-1.2713,-11.0277,0.2729,1.1969,0.2049,0.2236
1727,-1.2761,-11.0014,0.1987,1.2127,0.1625,0.2121
1735,-1.2785,-10.9678,0.1508,1.2244,0.1255,0.1964
1743,-1.2665,-11.0109,0.2035,1.2289,0.0815,0.1817
1751,-1.2570,-11.0205,0.0790,1.2236,0.0416,0.1652
1759,-1.2689,-10.9223,0.1077,1.2121,0.0056,0.1503
1767,-1.2163,-10.9990,0.0000,1.1980,-0.0360,0.1335
1775,-1.2067,-11.0157,0.0072,1.1706,-0.0685,0.1103
1783,-1.1756,-11.0205,-0.0335,1.1447,-0.1050,0.0869
1792,-1.1827,-11.0038,-0.0359,1.1143,-0.1367,0.0530
1799,-1.1540,-11.0157,-0.0239,1.0858,-0.1724,0.0117
1807,-1.1396,-10.9511,-0.0790,1.0571,-0.2009,-0.0298
1815,-1.0989,-11.0588,-0.0263,1.0363,-0.2308,-0.0797
1823,-1.1684,-11.0157,0.0790,1.0128,-0.2649,-0.1210
1831,-1.1971,-10.9654,0.1484,0.9976,-0.3072,-0.1553
1839,-1.2785,-10.9583,0.1197,0.9902,-0.3491,-0.1847
1847,-1.3288,-10.8697,0.1221,0.9816,-0.3928,-0.1988
1855,-1.3791,-10.8625,0.1125,0.9747,-0.4357,-0.2054
1863,-1.4054,-10.7643,0.0192,0.9646,-0.4807,-0.2017
1871,-1.4533,-10.8338,0.0742,0.9563,-0.5228,-0.1913
1880,-1.4293,-10.7212,0.1030,0.9491,-0.5601,-0.1737
1887,-1.5083,-10.6853,0.0670,0.9342,-0.5974,-0.1487
1895,-1.6017,-10.6853,0.1437,0.9185,-0.6387,-0.1183
1903,-1.5490,-10.5943,0.0790,0.9009,-0.6747,-0.0869
1911,-1.4724,-10.5800,0.0407,0.8841,-0.7091,-0.0578
1920,-1.5036,-10.4794,0.1221,0.8684,-0.7402,-0.0245
1927,-1.5538,-10.4651,0.0838,0.8505,-0.7642,0.0115
1935,-1.4988,-10.4770,0.1053,0.8364,-0.7839,0.0389
1943,-1.4916,-10.4339,0.0192,0.8178,-0.7938,0.0624
1951,-1.3862,-10.4411,0.0192,0.8060,-0.8010,0.0885
1959,-1.4150,-10.4339,0.0096,0.7911,-0.8114,0.0994
1968,-1.3623,-10.3238,-0.0239,0.7767,-0.8146,0.1167
1975,-1.3982,-10.3046,0.0239,0.7682,-0.8082,0.1263
1983,-1.3599,-10.3238,-0.0120,0.7610,-0.8026,0.1348
1991,-1.3216,-10.2975,-0.0239,0.7530,-0.7890,0.1426
1999,-1.2546,-10.2951,-0.0144,0.7461,-0.7735,0.1434
2008,-1.2713,-10.2448,-0.0694,0.7424,-0.7493,0.1455
2015,-1.2258,-10.2544,-0.0311,0.7306,-0.7232,0.1466
2023,-1.2115,-10.1203,-0.0599,0.7186,-0.6931,0.1455
2031,-1.2186,-10.1562,-0.1173,0.7056,-0.6587,0.1428
2039,-1.1923,-10.0413,-0.1317,0.6885,-0.6206,0.1367
2048,-1.1732,-10.0341,-0.1317,0.6680,-0.5820,0.1271
2056,-1.1372,-10.0652,-0.1939,0.6480,-0.5321,0.1199
2063,-1.1181,-9.9838,-0.1604,0.6259,-0.4842,0.1042
2071,-1.1684,-9.9359,-0.0670,0.5987,-0.4362,0.0845
2079,-1.0558,-9.8976,-0.1077,0.5734,-0.3792,0.0653
2087,-1.0463,-9.8928,-0.1915,0.5476,-0.3203,0.0376
2096,-1.0965,-9.7803,-0.1820,0.5268,-0.2707,0.0136
2103,-1.0319,-9.8043,-0.1221,0.4999,-0.2150,-0.0163
2111,-1.0822,-9.7636,-0.2131,0.4732,-0.1636,-0.0357
2119,-1.0271,-9.7659,-0.1987,0.4463,-0.1095,-0.0632
2127,-1.0774,-9.6534,-0.0694,0.4183,-0.0581,-0.0903
2136,-1.0271,-9.6223,-0.1484,0.3909,-0.0067,-0.1090
2144,-1.1037,-9.6223,-0.0575,0.3683,0.0389,-0.1276
2151,-1.1349,-9.5265,-0.1389,0.3411,0.0821,-0.1370
2159,-1.1444,-9.5888,-0.0742,0.3144,0.1196,-0.1404
2167,-1.1492,-9.4930,-0.1293,0.2936,0.1537,-0.1407
2176,-1.1516,-9.5361,-0.1365,0.2641,0.1911,-0.1415
2184,-1.2474,-9.4763,-0.0958,0.2377,0.2166,-0.1364
2191,-1.1803,-9.4403,-0.1341,0.2108,0.2446,-0.1300
2199,-1.2091,-9.3111,-0.1101,0.1820,0.2689,-0.1111
2207,-1.2282,-9.3996,-0.0144,0.1527,0.2872,-0.0999
2215,-1.2402,-9.3829,-0.0335,0.1303,0.3040,-0.0826
2224,-1.2594,-9.3829,-0.0575,0.1031,0.3150,-0.0666
2232,-1.2378,-9.3877,-0.0599,0.0775,0.3264,-0.0482
2239,-1.2977,-9.3733,-0.0455,0.0546,0.3275,-0.0312
2247,-1.3168,-9.3637,0.0431,0.0301,0.3280,-0.0104
2255,-1.2163,-9.3518,0.0024,0.0099,0.3304,0.0101
2264,-1.2713,-9.3565,-0.0215,-0.0123,0.3264,0.0306
2272,-1.2522,-9.3565,0.0359,-0.0362,0.3232,0.0469
2279,-1.2833,-9.3446,0.0670,-0.0610,0.3118,0.0653
2287,-1.2833,-9.3637,0.0790,-0.0818,0.3006,0.0885
2295,-1.2570,-9.3829,0.1341,-0.1021,0.2936,0.1100
2304,-1.2570,-9.4451,0.0359,-0.1260,0.2769,0.1300
2312,-1.2737,-9.4834,-0.0239,-0.1484,0.2635,0.1484
2319,-1.2857,-9.4116,0.0263,-0.1769,0.2483,0.1647
2327,-1.2258,-9.5026,0.0144,-0.2033,0.2361,0.1761
2335,-1.2163,-9.4882,0.0431,-0.2278,0.2214,0.1887
2343,-1.1971,-9.5098,-0.0120,-0.2585,0.2081,0.1929
2352,-1.2091,-9.5050,-0.0192,-0.2912,0.1966,0.1927
2360,-1.1779,-9.5577,-0.0048,-0.3222,0.1812,0.1937
2367,-1.1588,-9.5529,0.0718,-0.3493,0.1711,0.1863
2375,-1.1732,-9.6079,0.0048,-0.3778,0.1641,0.1796
2383,-1.1253,-9.6917,-0.0455,-0.4114,0.1498,0.1663
2392,-1.1133,-9.7803,0.0335,-0.4455,0.1495,0.1532
2400,-1.1277,-9.7755,-0.0096,-0.4751,0.1407,0.1367
2407,-1.1420,-9.7492,0.0048,-0.5065,0.1364,0.1183
2415,-1.1037,-9.7157,-0.0096,-0.5393,0.1351,0.1026
2423,-1.0678,-9.7995,0.0096,-0.5668,0.1276,0.0869
2432,-1.0989,-9.8976,0.0503,-0.5990,0.1279,0.0653
2440,-1.0846,-9.9120,0.0239,-0.6267,0.1228,0.0496
2448,-1.1013,-9.9383,0.0766,-0.6539,0.1188,0.0314
2455,-1.1564,-9.9718,-0.0192,-0.6808,0.1111,0.0181
2463,-1.1588,-10.0078,0.1149,-0.7059,0.1085,0.0045
2471,-1.1947,-10.0533,0.0215,-0.7293,0.1023,-0.0051
2480,-1.2330,-10.0748,0.1053,-0.7522,0.0986,-0.0117
2488,-1.2234,-10.1011,0.1245,-0.7711,0.0911,-0.0179
2495,-1.1899,-10.1418,0.0766,-0.7957,0.0903,-0.0226
2503,-1.2306,-10.2496,0.1053,-0.8108,0.0850,-0.0211
2511,-1.2977,-10.3070,0.0790,-0.8303,0.0770,-0.0234
2520,-1.3264,-10.2448,0.0886,-0.8471,0.0730,-0.0189
2528,-1.3479,-10.2615,0.1652,-0.8620,0.0685,-0.0128
2536,-1.3910,-10.3453,0.2059,-0.8785,0.0634,-0.0040
2543,-1.3575,-10.3717,0.1053,-0.8926,0.0586,0.0029
2551,-1.3479,-10.3358,0.1915,-0.9062,0.0474,0.0171
2560,-1.3767,-10.4483,0.1772,-0.9214,0.0440,0.0288
2568,-1.3862,-10.4603,0.1844,-0.9278,0.0418,0.0416
2576,-1.4365,-10.4818,0.1556,-0.9385,0.0312,0.0560
2583,-1.4126,-10.4603,0.2370,-0.9457,0.0250,0.0733
2591,-1.4293,-10.4962,0.1820,-0.9521,0.0245,0.0925
2599,-1.3767,-10.5417,0.1891,-0.9571,0.0213,0.1103
2608,-1.3767,-10.6087,0.2131,-0.9630,0.0173,0.1228
2616,-1.4724,-10.5417,0.1867,-0.9646,0.0139,0.1415
2624,-1.4246,-10.5872,0.2251,-0.9673,0.0115,0.1567
2631,-1.3503,-10.6734,0.2227,-0.9670,0.0139,0.1681
2639,-1.3862,-10.7236,0.2370,-0.9747,0.0184,0.1759
2648,-1.3862,-10.7356,0.1700,-0.9742,0.0269,0.1844
2656,-1.3408,-10.7787,0.2562,-0.9832,0.0346,0.1897
2664,-1.4030,-10.7859,0.0479,-0.9814,0.0432,0.1924
2671,-1.3623,-10.7571,0.2059,-0.9886,0.0584,0.1919
2679,-1.2713,-10.7691,0.0790,-0.9915,0.0690,0.1881
2688,-1.3743,-10.8170,0.2059,-0.9998,0.0855,0.1839
2696,-1.2953,-10.8553,0.0934,-0.9995,0.0981,0.1767
2704,-1.3024,-10.8290,0.1484,-1.0075,0.1180,0.1684
2712,-1.3408,-10.8481,0.1006,-1.0120,0.1306,0.1596
2719,-1.2570,-10.8553,0.2107,-1.0136,0.1490,0.1447
2727,-1.2785,-10.8697,0.1365,-1.0182,0.1692,0.1348
2736,-1.2761,-10.8314,0.2394,-1.0243,0.1897,0.1231
2744,-1.3264,-10.8912,0.1676,-1.0261,0.2060,0.1077
2752,-1.3096,-10.8338,0.1844,-1.0235,0.2244,0.0970
2759,-1.3384,-10.8625,0.1987,-1.0237,0.2406,0.0821
2767,-1.3144,-10.8266,0.1748,-1.0253,0.2625,0.0687
2776,-1.3072,-10.8481,0.2059,-1.0221,0.2758,0.0533
2784,-1.2761,-10.8194,0.1149,-1.0195,0.2910,0.0418
2792,-1.3551,-10.8697,0.1532,-1.0176,0.3027,0.0336
2800,-1.3336,-10.8098,0.2466,-1.0126,0.3118,0.0261
2807,-1.3527,-10.7452,0.3184,-1.0062,0.3208,0.0155
2816,-1.3479,-10.7548,0.2298,-1.0014,0.3222,0.0125
2824,-1.4006,-10.7260,0.1700,-0.9920,0.3283,0.0064
2832,-1.4078,-10.7141,0.2753,-0.9899,0.3317,0.0083
2840,-1.3431,-10.6303,0.2586,-0.9771,0.3317,0.0061
2847,-1.3503,-10.6686,0.3184,-0.9667,0.3309,0.0059
2855,-1.4054,-10.6063,0.2370,-0.9577,0.3293,0.0120
2864,-1.3288,-10.5896,0.2729,-0.9505,0.3208,0.0155
2872,-1.3743,-10.5776,0.2107,-0.9387,0.3152,0.0232
2880,-1.4054,-10.5560,0.3663,-0.9214,0.3046,0.0282
2888,-1.4030,-10.5321,0.2753,-0.9084,0.2963,0.0376
2895,-1.4102,-10.4507,0.2155,-0.8940,0.2870,0.0488
2904,-1.3503,-10.4387,0.3136,-0.8801,0.2774,0.0565
2912,-1.3815,-10.4459,0.2298,-0.8599,0.2617,0.0655
2920,-1.3599,-10.3406,0.2921,-0.8447,0.2545,0.0725
2928,-1.3527,-10.3286,0.2801,-0.8231,0.2342,0.0807
2935,-1.3815,-10.3286,0.1748,-0.8074,0.2222,0.0922
2944,-1.3048,-10.2639,0.2945,-0.7839,0.2062,0.0989
2952,-1.3575,-10.2376,0.2993,-0.7669,0.1905,0.1063
2960,-1.3815,-10.2065,0.3663,-0.7461,0.1788,0.1100
2968,-1.2953,-10.2017,0.2466,-0.7237,0.1687,0.1100
2975,-1.3168,-10.0652,0.2466,-0.7072,0.1511,0.1159
2983,-1.3024,-10.0700,0.2394,-0.6843,0.1434,0.1140
2992,-1.2402,-10.0556,0.2777,-0.6678,0.1300,0.1124
3000,-1.2354,-10.0078,0.2634,-0.6443,0.1228,0.1106
3008,-1.2115,-9.9623,0.2921,-0.6235,0.1114,0.1077
3016,-1.1875,-9.9288,0.3184,-0.6030,0.1042,0.0991
3023,-1.1732,-9.9096,0.2322,-0.5873,0.0959,0.0927
3032,-1.1660,-9.8881,0.2370,-0.5660,0.0903,0.0834
3040,-1.2163,-9.8282,0.2251,-0.5431,0.0842,0.0733
3048,-1.1564,-9.7875,0.2753,-0.5263,0.0802,0.0682
3056,-1.1756,-9.8234,0.2203,-0.5063,0.0767,0.0581
3063,-1.1229,-9.7923,0.2370,-0.4844,0.0735,0.0482
3072,-1.1468,-9.7444,0.1891,-0.4666,0.0727,0.0349
3080,-1.1396,-9.7037,0.3304,-0.4450,0.0666,0.0240
3088,-1.1732,-9.6774,0.1915,-0.4231,0.0637,0.0107
3096,-1.1660,-9.6367,0.2418,-0.3978,0.0589,0.0021
3104,-1.1612,-9.6630,0.1891,-0.3738,0.0616,-0.0051
3111,-1.1349,-9.5505,0.2658,-0.3496,0.0546,-0.0120
3120,-1.1564,-9.6438,0.2658,-0.3251,0.0496,-0.0203
3128,-1.2306,-9.6175,0.2682,-0.3016,0.0440,-0.0240
3136,-1.2115,-9.5505,0.2586,-0.2753,0.0370,-0.0272
3144,-1.1684,-9.4906,0.2538,-0.2481,0.0322,-0.0298
3151,-1.1827,-9.4810,0.2801,-0.2188,0.0237,-0.0333
3160,-1.1588,-9.5074,0.3065,-0.1908,0.0179,-0.0317
3168,-1.1660,-9.4475,0.2059,-0.1604,0.0104,-0.0306
3176,-1.1636,-9.4260,0.2322,-0.1330,0.0035,-0.0269
3184,-1.1779,-9.4451,0.1604,-0.1061,-0.0021,-0.0229
3192,-1.2426,-9.4451,0.2993,-0.0767,-0.0139,-0.0216
3200,-1.2474,-9.3805,0.2682,-0.0464,-0.0234,-0.0141
3208,-1.1899,-9.4068,0.2346,-0.0176,-0.0282,-0.0083
3216,-1.2210,-9.4595,0.2825,0.0136,-0.0357,-0.0048
3224,-1.2546,-9.4643,0.2298,0.0434,-0.0442,0.0048
3232,-1.2210,-9.4140,0.1891,0.0759,-0.0490,0.0085
3239,-1.2522,-9.4379,0.2658,0.1007,-0.0594,0.0187
3248,-1.2378,-9.4188,0.2394,0.1340,-0.0608,0.0224
3256,-1.2402,-9.4786,0.2346,0.1639,-0.0690,0.0282
3264,-1.2426,-9.4643,0.1269,0.1958,-0.0746,0.0333
3272,-1.2402,-9.4619,0.1580,0.2273,-0.0786,0.0400
3280,-1.1684,-9.4739,0.2227,0.2595,-0.0802,0.0437
3288,-1.1851,-9.5074,0.2179,0.2918,-0.0834,0.0474
3296,-1.2091,-9.5505,0.3065,0.3224,-0.0909,0.0456
3304,-1.1851,-9.5912,0.1796,0.3533,-0.0959,0.0485
3312,-1.2234,-9.5888,0.2274,0.3866,-0.0957,0.0474
3320,-1.1756,-9.5984,0.1891,0.4096,-0.1037,0.0421
3328,-1.1444,-9.5768,0.2011,0.4402,-0.1031,0.0376
3336,-1.2139,-9.6606,0.2274,0.4687,-0.1069,0.0352
3344,-1.1899,-9.7181,0.2634,0.5007,-0.1108,0.0298
3352,-1.2043,-9.7300,0.1748,0.5228,-0.1132,0.0213
3360,-1.2378,-9.7659,0.2394,0.5470,-0.1148,0.0157
3368,-1.2019,-9.8402,0.2107,0.5697,-0.1140,0.0072
3376,-1.1995,-9.8785,0.2418,0.5899,-0.1124,0.0008
3384,-1.2210,-9.8234,0.1796,0.6102,-0.1130,-0.0040
3392,-1.2378,-9.9072,0.1867,0.6294,-0.1191,-0.0112
3400,-1.2091,-9.9335,0.1484,0.6515,-0.1231,-0.0187
3408,-1.2186,-9.9527,0.1365,0.6702,-0.1263,-0.0269
3416,-1.2282,-10.0772,0.1149,0.6888,-0.1231,-0.0312
3424,-1.2522,-10.0580,0.1149,0.7040,-0.1228,-0.0362
3432,-1.2665,-10.0580,0.0934,0.7208,-0.1268,-0.0418
3440,-1.2929,-10.0820,0.1652,0.7312,-0.1244,-0.0421
3448,-1.3288,-10.1754,0.1413,0.7474,-0.1290,-0.0429
3457,-1.3001,-10.1658,0.2107,0.7650,-0.1319,-0.0450
3464,-1.2737,-10.1610,0.1987,0.7762,-0.1316,-0.0442
3472,-1.2641,-10.2615,0.0694,0.7927,-0.1404,-0.0493
3480,-1.2929,-10.3118,0.1580,0.8060,-0.1407,-0.0496
3488,-1.2761,-10.2951,0.1604,0.8180,-0.1458,-0.0464
3496,-1.3072,-10.3358,0.0934,0.8306,-0.1490,-0.0466
3504,-1.3264,-10.3525,0.0814,0.8431,-0.1511,-0.0434
3512,-1.3192,-10.3645,0.1460,0.8529,-0.1591,-0.0344
3520,-1.3360,-10.4028,0.1341,0.8617,-0.1636,-0.0322
3528,-1.3695,-10.4148,0.0766,0.8697,-0.1716,-0.0301
3536,-1.3336,-10.4746,0.0982,0.8823,-0.1756,-0.0224
3545,-1.3360,-10.4842,0.0958,0.8908,-0.1857,-0.0203
3552,-1.3551,-10.5177,0.1700,0.8982,-0.1884,-0.0163
3560,-1.3144,-10.5441,0.2131,0.9116,-0.1953,-0.0107
3568,-1.3958,-10.5991,0.1484,0.9158,-0.1996,-0.0069
3576,-1.3312,-10.5896,0.1125,0.9254,-0.2030,0.0000
3585,-1.3551,-10.5991,0.1413,0.9366,-0.2116,0.0019
3592,-1.3431,-10.6111,0.0790,0.9478,-0.2172,0.0008
3600,-1.3886,-10.6566,0.1796,0.9523,-0.2217,0.0021
3608,-1.3120,-10.6710,0.1341,0.9609,-0.2265,0.0021
3616,-1.2977,-10.7332,0.1293,0.9737,-0.2310,0.0048
3624,-1.3408,-10.7548,0.1149,0.9814,-0.2305,0.0016
3633,-1.3288,-10.7069,0.1484,0.9846,-0.2329,-0.0011
3640,-1.3192,-10.7476,0.0431,0.9920,-0.2369,-0.0011
3648,-1.3264,-10.7164,0.1077,0.9982,-0.2332,-0.0043
3656,-1.3743,-10.7117,-0.0048,1.0008,-0.2348,-0.0088
3664,-1.3408,-10.7667,0.0838,1.0051,-0.2385,-0.0131
3673,-1.3551,-10.7500,0.0048,1.0086,-0.2380,-0.0155
3680,-1.3096,-10.7931,0.0503,1.0104,-0.2403,-0.0211
3688,-1.3455,-10.7859,0.0599,1.0099,-0.2358,-0.0269
3696,-1.3862,-10.7739,0.0575,1.0096,-0.2358,-0.0301
3704,-1.4174,-10.7332,0.0335,1.0078,-0.2316,-0.0306
3713,-1.3647,-10.7284,0.0599,1.0043,-0.2332,-0.0338
3720,-1.2929,-10.7835,0.0335,0.9955,-0.2300,-0.0376
3728,-1.3479,-10.7021,-0.0527,0.9918,-0.2297,-0.0413
3736,-1.3048,-10.7212,-0.0479,0.9824,-0.2276,-0.0453
3744,-1.3384,-10.7500,0.0072,0.9792,-0.2262,-0.0488
3752,-1.3551,-10.6734,0.0072,0.9678,-0.2238,-0.0496
3761,-1.3312,-10.6853,0.0120,0.9590,-0.2254,-0.0480
3768,-1.4269,-10.6398,-0.0096,0.9457,-0.2244,-0.0525
3776,-1.3551,-10.5967,-0.0263,0.9345,-0.2182,-0.0474
3784,-1.3408,-10.6015,0.0503,0.9233,-0.2190,-0.0461
3792,-1.4293,-10.6255,-0.0814,0.9092,-0.2190,-0.0453
3801,-1.3575,-10.5608,-0.0622,0.8996,-0.2169,-0.0429
3808,-1.3599,-10.5608,0.0120,0.8828,-0.2180,-0.0426
3816,-1.3408,-10.4722,0.0024,0.8719,-0.2174,-0.0373
3824,-1.3096,-10.4603,-0.0311,0.8583,-0.2148,-0.0336
3832,-1.2881,-10.4172,-0.0287,0.8436,-0.2150,-0.0314
3841,-1.3264,-10.3932,-0.0239,0.8258,-0.2113,-0.0272
3849,-1.3216,-10.3717,-0.0120,0.8138,-0.2084,-0.0218
3856,-1.3216,-10.3453,0.0192,0.7986,-0.2078,-0.0192
3864,-1.3192,-10.3549,-0.0192,0.7823,-0.2030,-0.0133
3872,-1.3144,-10.3118,-0.0048,0.7701,-0.2017,-0.0109
3880,-1.3312,-10.2735,0.0575,0.7584,-0.2004,-0.0072
3889,-1.2905,-10.2304,-0.0096,0.7381,-0.1921,-0.0043
3896,-1.3408,-10.2232,0.0694,0.7226,-0.1887,-0.0053
3904,-1.2402,-10.2496,-0.0431,0.7077,-0.1865,0.0024
3912,-1.2929,-10.1179,-0.0168,0.6915,-0.1801,0.0024
3920,-1.2785,-10.1107,0.0048,0.6747,-0.1756,0.0072
3929,-1.2354,-10.0461,0.0048,0.6598,-0.1751,0.0056
3937,-1.2522,-10.0149,0.0215,0.6443,-0.1657,0.0067
3944,-1.2091,-10.0245,-0.0311,0.6315,-0.1596,0.0075
3952,-1.2761,-9.9814,0.0168,0.6129,-0.1514,0.0080
3960,-1.2977,-9.9718,-0.0742,0.5947,-0.1500,0.0104
3969,-1.2330,-9.9048,-0.0479,0.5758,-0.1458,0.0131
3977,-1.1899,-9.9144,0.0311,0.5550,-0.1343,0.0144
3984,-1.2761,-9.8641,-0.0599,0.5351,-0.1290,0.0147
3992,-1.2641,-9.8426,0.0431,0.5137,-0.1215,0.0155
4000,-1.2330,-9.8497,-0.0814,0.4924,-0.1167,0.0128
4008,-1.2019,-9.8258,-0.0479,0.4802,-0.1077,0.0131
4017,-1.1947,-9.7372,0.0431,0.4562,-0.1010,0.0109
4025,-1.1444,-9.7612,0.0096,0.4365,-0.0922,0.0099
4032,-1.1732,-9.7037,-0.0527,0.4143,-0.0858,0.0072
4040,-1.2019,-9.6678,0.0479,0.3928,-0.0810,0.0040
4048,-1.2210,-9.7133,0.0215,0.3736,-0.0719,0.0061
4057,-1.1995,-9.6295,-0.0239,0.3523,-0.0655,0.0048
4065,-1.1588,-9.6223,0.0024,0.3272,-0.0586,0.0053
4072,-1.2354,-9.6702,-0.0215,0.3040,-0.0506,0.0080
4080,-1.2402,-9.5984,-0.0622,0.2753,-0.0490,0.0131
4088,-1.1995,-9.5385,-0.1532,0.2518,-0.0410,0.0125
4097,-1.2139,-9.5265,-0.0407,0.2252,-0.0349,0.0160
4105,-1.1923,-9.5193,-0.1030,0.1961,-0.0325,0.0200
4113,-1.1612,-9.4834,-0.1053,0.1673,-0.0269,0.0240
4120,-1.2115,-9.4858,-0.0407,0.1399,-0.0232,0.0272
4128,-1.2115,-9.5193,-0.1245,0.1130,-0.0213,0.0304
4136,-1.1612,-9.4619,-0.0670,0.0858,-0.0125,0.0301
4145,-1.1779,-9.4547,-0.1077,0.0608,-0.0091,0.0352
4153,-1.2498,-9.4212,-0.0263,0.0296,-0.0101,0.0376
4160,-1.2234,-9.5002,0.0287,0.0024,-0.0032,0.0418
4168,-1.2306,-9.4858,-0.0239,-0.0282,0.0008,0.0448
4176,-1.2210,-9.4810,-0.0335,-0.0517,0.0032,0.0498
4185,-1.1923,-9.4523,0.0215,-0.0823,0.0069,0.0557
4193,-1.1468,-9.4715,0.0527,-0.1047,0.0112,0.0536
4201,-1.1779,-9.4763,0.0168,-0.1308,0.0147,0.0602
4208,-1.1372,-9.5409,-0.0048,-0.1591,0.0200,0.0661
4216,-1.2306,-9.5385,-0.0120,-0.1865,0.0256,0.0677
4225,-1.1779,-9.5122,-0.0814,-0.2126,0.0322,0.0733
4233,-1.2115,-9.5864,0.0359,-0.2388,0.0309,0.0797
4241,-1.1971,-9.5337,-0.0263,-0.2646,0.0368,0.0815
4248,-1.2522,-9.5816,0.0527,-0.2856,0.0429,0.0866
4256,-1.2785,-9.6127,-0.0599,-0.3091,0.0448,0.0885
4264,-1.2139,-9.6319,0.0096,-0.3368,0.0496,0.0879
4273,-1.2330,-9.6678,-0.0239,-0.3621,0.0610,0.0895
4281,-1.1708,-9.5792,0.0527,-0.3813,0.0645,0.0898
4289,-1.2474,-9.6917,-0.0359,-0.3989,0.0698,0.0911
4296,-1.2594,-9.6845,0.0215,-0.4239,0.0786,0.0922
4304,-1.2426,-9.7252,-0.0575,-0.4503,0.0874,0.0930
4313,-1.2570,-9.7205,0.0215,-0.4719,0.0954,0.0917
4321,-1.2163,-9.7779,-0.0742,-0.4876,0.1042,0.0935
4329,-1.1875,-9.7516,0.0359,-0.5145,0.1116,0.0906
4336,-1.2594,-9.8378,0.0239,-0.5305,0.1242,0.0925
4344,-1.2258,-9.9096,0.0144,-0.5508,0.1282,0.0909
4353,-1.2737,-9.9144,0.0670,-0.5718,0.1404,0.0927
4361,-1.2641,-9.8689,0.1197,-0.5891,0.1484,0.0919
4369,-1.2330,-9.9072,0.0335,-0.6073,0.1553,0.0909
4376,-1.2330,-10.0269,0.0838,-0.6222,0.1628,0.0895
4384,-1.2881,-10.0126,-0.0096,-0.6376,0.1727,0.0919
4392,-1.2378,-10.0892,0.0694,-0.6504,0.1783,0.0885
4401,-1.2785,-10.0772,0.0982,-0.6680,0.1863,0.0919
4409,-1.2474,-10.0796,0.0742,-0.6792,0.1913,0.0909
4417,-1.2713,-10.1418,0.0982,-0.6957,0.1966,0.0901
4424,-1.2474,-10.1083,0.0790,-0.7107,0.1961,0.0901
4432,-1.3192,-10.1921,0.0000,-0.7221,0.2052,0.0887
4441,-1.3048,-10.2352,0.1077,-0.7368,0.2100,0.0914
4449,-1.3144,-10.2544,0.0599,-0.7493,0.2118,0.0871
4457,-1.3001,-10.2568,0.0910,-0.7650,0.2161,0.0903
4464,-1.2809,-10.3022,0.0694,-0.7759,0.2177,0.0898
4472,-1.3024,-10.3286,0.0934,-0.7906,0.2169,0.0885
4481,-1.3862,-10.3860,0.1844,-0.7989,0.2172,0.0919
4489,-1.3431,-10.4244,0.1221,-0.8151,0.2214,0.0919
4497,-1.2953,-10.3980,0.1365,-0.8215,0.2206,0.0927
4505,-1.3623,-10.4315,0.1437,-0.8356,0.2204,0.0951
4512,-1.3479,-10.5105,0.2107,-0.8452,0.2196,0.0946
4520,-1.3623,-10.4267,0.1844,-0.8548,0.2180,0.0949
4529,-1.3695,-10.5512,0.1149,-0.8663,0.2150,0.0943
4537,-1.3144,-10.5177,0.1221,-0.8745,0.2145,0.0954
4545,-1.3503,-10.5680,0.0862,-0.8812,0.2089,0.0949
4552,-1.3527,-10.5991,0.1556,-0.8916,0.2030,0.0965
4560,-1.2977,-10.5465,0.1197,-0.8961,0.2009,0.1007
4569,-1.3240,-10.5704,0.2155,-0.9057,0.1990,0.0983
4577,-1.3767,-10.6422,0.2394,-0.9126,0.1980,0.0933
4585,-1.3815,-10.6542,0.1700,-0.9222,0.1929,0.0927
4593,-1.3527,-10.5680,0.1580,-0.9257,0.1887,0.0935
4600,-1.3743,-10.6590,0.1963,-0.9324,0.1844,0.0930
4609,-1.4078,-10.6853,0.1077,-0.9363,0.1831,0.0933
4617,-1.3527,-10.6494,0.1844,-0.9406,0.1801,0.0930
4625,-1.3599,-10.7188,0.2849,-0.9435,0.1737,0.0930
4633,-1.4150,-10.6350,0.1939,-0.9457,0.1700,0.0901
4640,-1.2857,-10.6949,0.2705,-0.9446,0.1703,0.0911
4648,-1.3934,-10.6829,0.2418,-0.9454,0.1625,0.0893
4657,-1.2761,-10.6350,0.2346,-0.9457,0.1596,0.0898
4665,-1.3216,-10.6973,0.2227,-0.9433,0.1545,0.0893
4673,-1.3551,-10.6734,0.2011,-0.9406,0.1506,0.0853
4681,-1.3958,-10.6710,0.2107,-0.9361,0.1476,0.0826
4688,-1.3767,-10.6973,0.2131,-0.9342,0.1439,0.0829
4697,-1.3072,-10.6662,0.1556,-0.9270,0.1436,0.0815
4705,-1.3001,-10.5967,0.2442,-0.9217,0.1370,0.0805
4713,-1.2713,-10.6183,0.2131,-0.9158,0.1362,0.0765
4721,-1.3120,-10.6111,0.2634,-0.9081,0.1338,0.0765
4728,-1.3455,-10.5465,0.2682,-0.9022,0.1327,0.0722
4737,-1.3671,-10.6207,0.2131,-0.8966,0.1303,0.0733
4745,-1.3312,-10.5656,0.2705,-0.8871,0.1295,0.0735
4753,-1.3120,-10.5082,0.2825,-0.8759,0.1266,0.0695
4761,-1.3240,-10.4986,0.2562,-0.8668,0.1260,0.0650
4769,-1.3408,-10.4890,0.2418,-0.8540,0.1228,0.0677
4776,-1.3455,-10.4818,0.3400,-0.8466,0.1220,0.0669
4785,-1.3240,-10.4531,0.1652,-0.8348,0.1247,0.0666
4793,-1.2737,-10.3980,0.2203,-0.8210,0.1231,0.0621
4801,-1.3360,-10.3645,0.2298,-0.8084,0.1223,0.0637
4809,-1.2809,-10.3765,0.2107,-0.7983,0.1194,0.0584
4816,-1.2426,-10.3022,0.2203,-0.7831,0.1204,0.0602
4825,-1.3623,-10.2879,0.2801,-0.7711,0.1199,0.0610
4833,-1.2833,-10.2256,0.3280,-0.7568,0.1178,0.0618
4841,-1.2761,-10.2256,0.2897,-0.7405,0.1167,0.0568
4849,-1.3623,-10.2256,0.2466,-0.7274,0.1154,0.0530
4857,-1.3288,-10.1323,0.2155,-0.7125,0.1130,0.0552
4865,-1.1971,-10.1466,0.2035,-0.6941,0.1151,0.0557
4873,-1.2761,-10.1059,0.1915,-0.6763,0.1106,0.0544
4881,-1.2929,-10.0892,0.1676,-0.6646,0.1114,0.0560
4889,-1.2785,-10.0916,0.2610,-0.6435,0.1119,0.0552
4897,-1.2330,-10.0149,0.2873,-0.6286,0.1180,0.0509
4904,-1.3431,-9.9527,0.2227,-0.6113,0.1106,0.0490
4913,-1.2833,-10.0173,0.1508,-0.5907,0.1114,0.0501
4921,-1.3072,-9.9575,0.2418,-0.5761,0.1135,0.0490
4929,-1.2139,-9.9120,0.2777,-0.5561,0.1111,0.0482
4937,-1.1971,-9.9072,0.3112,-0.5353,0.1106,0.0453
4944,-1.2498,-9.8809,0.3328,-0.5161,0.1108,0.0472
4953,-1.2354,-9.8881,0.1820,-0.4938,0.1085,0.0472
4961,-1.2522,-9.7851,0.2418,-0.4735,0.1074,0.0456
4969,-1.1875,-9.7923,0.1772,-0.4509,0.1074,0.0416
4977,-1.2067,-9.7348,0.1628,-0.4277,0.1029,0.0408
4985,-1.1636,-9.7612,0.2753,-0.4032,0.1042,0.0394
4993,-1.1923,-9.7300,0.2107,-0.3805,0.1021,0.0354
5001,-1.2641,-9.6654,0.2705,-0.3587,0.0986,0.0330
5009,-1.1660,-9.6678,0.1796,-0.3336,0.0965,0.0325
5017,-1.2091,-9.6295,0.2514,-0.3072,0.0981,0.0293
5025,-1.2139,-9.6055,0.2035,-0.2848,0.0949,0.0282
5032,-1.2378,-9.6199,0.2131,-0.2569,0.0933,0.0234
5041,-1.1779,-9.5960,0.1963,-0.2316,0.0877,0.0226
5049,-1.1540,-9.5840,0.2203,-0.2060,0.0850,0.0200
5057,-1.1396,-9.5193,0.1844,-0.1799,0.0802,0.0195
5065,-1.2043,-9.5624,0.2442,-0.1500,0.0735,0.0160
5073,-1.1947,-9.5122,0.2418,-0.1260,0.0725,0.0152
5081,-1.2019,-9.4906,0.2370,-0.1002,0.0632,0.0099
5089,-1.1851,-9.5146,0.2993,-0.0727,0.0597,0.0093
5097,-1.1372,-9.5409,0.2203,-0.0461,0.0528,0.0077
5105,-1.1612,-9.5002,0.2322,-0.0213,0.0480,0.0064
5113,-1.2306,-9.5720,0.2466,0.0040,0.0362,0.0021
5121,-1.1947,-9.4978,0.2658,0.0309,0.0320,0.0019
5129,-1.2354,-9.5361,0.1365,0.0562,0.0221,-0.0008
5137,-1.2019,-9.4930,0.2514,0.0853,0.0152,-0.0035
5145,-1.1708,-9.5002,0.2011,0.1085,0.0043,-0.0072
5153,-1.1851,-9.5074,0.2251,0.1351,-0.0035,-0.0045
5161,-1.2282,-9.5002,0.2083,0.1577,-0.0120,-0.0051
5169,-1.2019,-9.5816,0.1772,0.1817,-0.0221,-0.0080
5177,-1.2186,-9.5792,0.1628,0.2081,-0.0306,-0.0069
5185,-1.2091,-9.5217,0.2993,0.2313,-0.0405,-0.0069
5193,-1.2210,-9.5936,0.2777,0.2547,-0.0458,-0.0077
5201,-1.2186,-9.6414,0.2155,0.2777,-0.0546,-0.0085
5209,-1.2139,-9.6391,0.1532,0.3059,-0.0661,-0.0088
5217,-1.2785,-9.6151,0.2131,0.3269,-0.0711,-0.0088
5225,-1.2186,-9.6750,0.2251,0.3456,-0.0826,-0.0069
5233,-1.2210,-9.6510,0.2562,0.3752,-0.0895,-0.0099
5241,-1.2234,-9.7037,0.1221,0.3984,-0.0943,-0.0093
5250,-1.2115,-9.6989,0.2729,0.4245,-0.1047,-0.0051
5257,-1.2737,-9.7468,0.1820,0.4450,-0.1111,-0.0112
5265,-1.2258,-9.7396,0.1963,0.4674,-0.1199,-0.0083
5273,-1.2809,-9.8282,0.2059,0.4927,-0.1242,-0.0056
5281,-1.2378,-9.7899,0.2658,0.5143,-0.1308,-0.0045
5289,-1.2402,-9.8426,0.1652,0.5364,-0.1391,-0.0080
5297,-1.2689,-9.8474,0.2490,0.5542,-0.1444,-0.0072
5305,-1.1995,-9.9000,0.1748,0.5737,-0.1540,-0.0093
5313,-1.2354,-9.9575,0.1891,0.5931,-0.1556,-0.0139
5321,-1.2785,-9.9479,0.1580,0.6099,-0.1585,-0.0141
5329,-1.2737,-9.9934,0.1413,0.6289,-0.1636,-0.0133
5338,-1.3264,-10.0437,0.2490,0.6448,-0.1649,-0.0141
5345,-1.2689,-10.0796,0.0982,0.6608,-0.1676,-0.0173
5353,-1.2617,-10.0652,0.1748,0.6771,-0.1673,-0.0179
5361,-1.2977,-10.1155,0.1820,0.6925,-0.1708,-0.0192
5369,-1.2450,-10.1155,0.1556,0.7056,-0.1692,-0.0213
5378,-1.2785,-10.1586,0.1413,0.7221,-0.1721,-0.0234
5385,-1.2713,-10.2328,0.1437,0.7341,-0.1719,-0.0218
5393,-1.2761,-10.2328,0.1221,0.7461,-0.1721,-0.0242
5401,-1.2737,-10.3310,0.1820,0.7570,-0.1756,-0.0272
5409,-1.3072,-10.2807,0.0790,0.7690,-0.1713,-0.0280
5417,-1.2977,-10.2951,0.0886,0.7826,-0.1729,-0.0293
5426,-1.3144,-10.3190,0.1365,0.7893,-0.1724,-0.0312
5433,-1.3336,-10.3645,0.1460,0.8013,-0.1708,-0.0368
5441,-1.3048,-10.3358,0.1149,0.8098,-0.1708,-0.0354
5449,-1.3527,-10.3860,0.1365,0.8167,-0.1719,-0.0346
5457,-1.3288,-10.4435,0.0910,0.8247,-0.1767,-0.0360
5466,-1.3695,-10.4531,0.0718,0.8330,-0.1751,-0.0368
5473,-1.3264,-10.4698,0.1891,0.8420,-0.1769,-0.0370
5481,-1.3838,-10.4890,0.0982,0.8471,-0.1764,-0.0378
5489,-1.3479,-10.5034,0.1197,0.8524,-0.1764,-0.0330
5497,-1.3408,-10.4770,0.1125,0.8628,-0.1764,-0.0341
5506,-1.3384,-10.5034,0.1317,0.8676,-0.1783,-0.0354
5514,-1.3455,-10.5489,0.1628,0.8748,-0.1812,-0.0320
5521,-1.3503,-10.5512,0.1365,0.8809,-0.1809,-0.0325
5529,-1.3767,-10.5512,0.1389,0.8831,-0.1825,-0.0333
5537,-1.3982,-10.5872,0.0000,0.8929,-0.1865,-0.0309
5545,-1.3551,-10.5752,0.0742,0.8948,-0.1865,-0.0320
5554,-1.3910,-10.5680,0.0335,0.8982,-0.1897,-0.0309
5561,-1.3623,-10.5896,0.0383,0.9030,-0.1865,-0.0304
5569,-1.3264,-10.5728,0.0287,0.9028,-0.1932,-0.0282
5577,-1.3767,-10.6183,0.0287,0.9105,-0.1905,-0.0309
5585,-1.3024,-10.5608,0.1245,0.9086,-0.1927,-0.0245
5594,-1.3671,-10.6207,0.1149,0.9084,-0.1919,-0.0288
5601,-1.3551,-10.5824,0.0144,0.9078,-0.1937,-0.0274
5609,-1.3240,-10.5991,-0.0311,0.9070,-0.1940,-0.0258
5617,-1.3336,-10.5584,0.1556,0.9054,-0.1972,-0.0242
5625,-1.3336,-10.6183,0.0287,0.9006,-0.1927,-0.0242
5634,-1.3695,-10.5201,0.0192,0.8945,-0.1895,-0.0240
5642,-1.3144,-10.5273,0.1006,0.8937,-0.1937,-0.0226
5649,-1.3886,-10.5082,0.0311,0.8833,-0.1948,-0.0229
5657,-1.3455,-10.5608,0.0263,0.8793,-0.1919,-0.0226
5665,-1.3408,-10.5848,0.0048,0.8748,-0.1908,-0.0248
5673,-1.3599,-10.5632,0.0407,0.8700,-0.1903,-0.0264
5682,-1.3527,-10.4603,0.0192,0.8623,-0.1935,-0.0253
5689,-1.3527,-10.4914,0.0239,0.8532,-0.1911,-0.0240
5697,-1.3168,-10.4267,-0.0096,0.8434,-0.1892,-0.0245
5705,-1.3575,-10.4411,-0.0192,0.8362,-0.1873,-0.0240
5713,-1.3455,-10.4267,-0.0694,0.8186,-0.1841,-0.0248
5722,-1.3623,-10.4220,0.1077,0.8116,-0.1820,-0.0229
5730,-1.3168,-10.4028,-0.0383,0.7973,-0.1823,-0.0237
5737,-1.3288,-10.3621,0.0742,0.7866,-0.1812,-0.0242
5745,-1.3192,-10.3741,0.0000,0.7695,-0.1804,-0.0245
5753,-1.3168,-10.3094,-0.0120,0.7546,-0.1775,-0.0221
5762,-1.2881,-10.2328,-0.0096,0.7426,-0.1732,-0.0208
5770,-1.3408,-10.2831,0.0958,0.7288,-0.1695,-0.0234
5777,-1.3767,-10.2855,0.0120,0.7152,-0.1647,-0.0197
5785,-1.2881,-10.1897,-0.0192,0.6973,-0.1628,-0.0173
5793,-1.2929,-10.1706,0.0287,0.6880,-0.1636,-0.0179
5801,-1.3384,-10.1418,0.1317,0.6672,-0.1615,-0.0152
5810,-1.3360,-10.1562,0.0096,0.6510,-0.1559,-0.0123
5818,-1.2785,-10.1083,0.0431,0.6366,-0.1548,-0.0107
5825,-1.2761,-10.0772,0.0766,0.6198,-0.1529,-0.0072
5833,-1.2761,-10.0461,-0.0982,0.6035,-0.1466,-0.0053
5841,-1.1827,-10.0269,-0.0646,0.5860,-0.1452,-0.0008
5850,-1.2665,-9.9742,-0.0048,0.5753,-0.1428,0.0000
5858,-1.3072,-9.9144,-0.0479,0.5529,-0.1391,-0.0011
5865,-1.2785,-9.9264,-0.0072,0.5372,-0.1367,0.0043
5873,-1.2833,-9.9024,-0.1125,0.5193,-0.1314,0.0075
5881,-1.2953,-9.8521,0.0311,0.5007,-0.1311,0.0123
5890,-1.2857,-9.8665,-0.0072,0.4796,-0.1268,0.0184
5898,-1.2809,-9.8976,0.0096,0.4612,-0.1191,0.0184
5906,-1.2785,-9.7875,0.0599,0.4442,-0.1164,0.0216
5913,-1.2617,-9.8162,-0.0455,0.4199,-0.1092,0.0261
5921,-1.2210,-9.7588,0.0335,0.4037,-0.1085,0.0293
5929,-1.1995,-9.7396,0.0215,0.3837,-0.1039,0.0274
5938,-1.2378,-9.7492,0.0335,0.3651,-0.0978,0.0277
5946,-1.2426,-9.6151,0.0335,0.3467,-0.0911,0.0296
5953,-1.1995,-9.6917,0.0551,0.3280,-0.0861,0.0322
5961,-1.2450,-9.6750,-0.0718,0.3086,-0.0821,0.0322
5969,-1.2019,-9.6654,-0.0646,0.2856,-0.0727,0.0304
5978,-1.2977,-9.5840,0.0263,0.2686,-0.0714,0.0309
5986,-1.2282,-9.5960,0.0168,0.2497,-0.0640,0.0328
5994,-1.2306,-9.5768,-0.0120,0.2241,-0.0594,0.0336
6001,-1.2115,-9.5912,-0.0263,0.2017,-0.0536,0.0365
6009,-1.2210,-9.5864,-0.0910,0.1812,-0.0461,0.0384
6018,-1.1899,-9.5433,-0.0263,0.1545,-0.0418,0.0386
6026,-1.2426,-9.5624,-0.0527,0.1316,-0.0357,0.0418
6034,-1.1444,-9.6007,-0.0120,0.1098,-0.0266,0.0413
6041,-1.2210,-9.5529,0.0551,0.0813,-0.0242,0.0456
6049,-1.1971,-9.5265,-0.0192,0.0600,-0.0173,0.0461
6057,-1.1971,-9.5217,-0.0718,0.0344,-0.0107,0.0458
6066,-1.1899,-9.5409,0.0311,0.0077,-0.0064,0.0482
6074,-1.2282,-9.5696,-0.0503,-0.0149,-0.0035,0.0496
6082,-1.2713,-9.5002,-0.0527,-0.0370,0.0048,0.0504
6089,-1.2139,-9.5409,-0.0215,-0.0642,0.0085,0.0528
6097,-1.1540,-9.5289,-0.0263,-0.0893,0.0165,0.0586
6106,-1.2426,-9.5696,-0.1245,-0.1119,0.0181,0.0597
6114,-1.2043,-9.5217,-0.0215,-0.1340,0.0240,0.0624
6122,-1.2091,-9.5984,-0.0263,-0.1620,0.0304,0.0613
6129,-1.2043,-9.5768,0.0359,-0.1807,0.0325,0.0640
6137,-1.1923,-9.5936,0.0215,-0.2102,0.0357,0.0701
6146,-1.2186,-9.6438,0.0215,-0.2294,0.0437,0.0746
6154,-1.2450,-9.6031,0.0144,-0.2563,0.0445,0.0767
6162,-1.2330,-9.6534,-0.0575,-0.2795,0.0538,0.0834
6170,-1.2067,-9.6391,-0.0048,-0.3032,0.0613,0.0831
6177,-1.2761,-9.6774,0.0024,-0.3248,0.0645,0.0877
6185,-1.1875,-9.7252,-0.0120,-0.3445,0.0706,0.0879
6194,-1.2546,-9.7109,-0.0096,-0.3672,0.0773,0.0930
6202,-1.2306,-9.7564,-0.0407,-0.3906,0.0866,0.0967
6210,-1.2498,-9.7540,0.0335,-0.4130,0.0933,0.0962
6217,-1.2354,-9.7588,-0.0886,-0.4351,0.1021,0.0973
6225,-1.2641,-9.8378,0.0575,-0.4546,0.1077,0.1002
6234,-1.1995,-9.8497,0.0263,-0.4727,0.1124,0.1021
6242,-1.2234,-9.8521,0.0383,-0.4903,0.1210,0.1005
6250,-1.2354,-9.8497,0.1269,-0.5103,0.1303,0.1002
6258,-1.2378,-9.8665,0.0479,-0.5263,0.1359,0.1034
6265,-1.2091,-9.9024,0.0599,-0.5428,0.1412,0.1026
6274,-1.2641,-9.9311,0.0982,-0.5572,0.1527,0.1005
6282,-1.2905,-9.9599,0.1006,-0.5713,0.1556,0.1013
6290,-1.2689,-10.0030,0.1484,-0.5852,0.1641,0.1005
6298,-1.2881,-9.9934,0.0575,-0.5950,0.1697,0.1034
6305,-1.2402,-10.0245,0.1006,-0.6091,0.1788,0.0991
6313,-1.2594,-10.0796,0.1365,-0.6211,0.1823,0.0981
6322,-1.2091,-10.0796,0.2227,-0.6352,0.1833,0.0986
6330,-1.3312,-10.2041,0.1365,-0.6454,0.1881,0.0965
6338,-1.2594,-10.1730,0.1293,-0.6579,0.1982,0.0954
6346,-1.2641,-10.1754,0.1101,-0.6691,0.1993,0.0917
6353,-1.2977,-10.2256,0.1077,-0.6800,0.2022,0.0922
6362,-1.2881,-10.1658,0.0670,-0.6933,0.2060,0.0895
6370,-1.3288,-10.2256,0.1963,-0.7021,0.2068,0.0890
6378,-1.3144,-10.2400,0.2155,-0.7136,0.2121,0.0890
6386,-1.3288,-10.2759,0.1365,-0.7202,0.2105,0.0858
6393,-1.3575,-10.3334,0.0742,-0.7346,0.2116,0.0861
6402,-1.2570,-10.3358,0.1173,-0.7392,0.2116,0.0858
6410,-1.2833,-10.3860,0.1149,-0.7504,0.2089,0.0866
6418,-1.4365,-10.3358,0.2155,-0.7653,0.2068,0.0869
6426,-1.3408,-10.3789,-0.0048,-0.7663,0.2057,0.0882
6434,-1.3623,-10.3645,0.1939,-0.7834,0.2060,0.0887
6441,-1.3096,-10.3789,0.1053,-0.7874,0.2017,0.0879
6450,-1.3719,-10.3693,0.1844,-0.7983,0.1988,0.0906
6458,-1.3192,-10.4267,0.1915,-0.8076,0.1964,0.0895
6466,-1.3479,-10.4363,0.0790,-0.8143,0.1924,0.0925
6474,-1.3240,-10.4722,0.0934,-0.8220,0.1844,0.0933
6481,-1.3408,-10.4651,0.0455,-0.8335,0.1828,0.0946
6490,-1.3192,-10.5034,0.1820,-0.8351,0.1745,0.0949
6498,-1.2929,-10.5201,0.1676,-0.8439,0.1711,0.0935
6506,-1.3695,-10.5465,0.2107,-0.8513,0.1679,0.0938
6514,-1.2977,-10.5058,0.2466,-0.8537,0.1644,0.0946
6521,-1.3527,-10.5369,0.0670,-0.8599,0.1567,0.0914
6530,-1.3862,-10.5058,0.1939,-0.8633,0.1522,0.0951
6538,-1.3408,-10.5465,0.1580,-0.8665,0.1503,0.0957
6546,-1.3551,-10.5153,0.1484,-0.8644,0.1426,0.0938
6554,-1.3312,-10.5441,0.1269,-0.8697,0.1383,0.0898
6562,-1.3264,-10.5441,0.1580,-0.8668,0.1380,0.0927
6569,-1.2665,-10.5465,0.1772,-0.8665,0.1316,0.0911
6578,-1.3096,-10.5369,0.1652,-0.8636,0.1282,0.0925
6586,-1.3767,-10.5345,0.1844,-0.8604,0.1210,0.0869
6594,-1.3384,-10.5082,0.2227,-0.8615,0.1236,0.0861
6602,-1.3192,-10.5177,0.2466,-0.8529,0.1178,0.0821
6609,-1.3336,-10.4387,0.2466,-0.8463,0.1191,0.0789
6618,-1.3503,-10.4866,0.1939,-0.8412,0.1172,0.0775
6626,-1.3024,-10.4962,0.2825,-0.8338,0.1111,0.0781
6634,-1.3575,-10.4315,0.2562,-0.8268,0.1124,0.0733
6642,-1.3479,-10.4651,0.2418,-0.8186,0.1090,0.0711
6650,-1.3120,-10.4028,0.1915,-0.8042,0.1098,0.0671
6658,-1.2785,-10.4076,0.2179,-0.7997,0.1100,0.0642
6666,-1.3264,-10.3860,0.2729,-0.7879,0.1092,0.0645
6674,-1.3455,-10.4172,0.1149,-0.7765,0.1071,0.0642
6682,-1.3336,-10.3837,0.1915,-0.7674,0.1034,0.0608
6690,-1.3096,-10.3118,0.2993,-0.7528,0.1055,0.0594
6697,-1.3312,-10.2831,0.2873,-0.7437,0.1066,0.0589
6706,-1.2546,-10.2615,0.2346,-0.7298,0.1037,0.0552
6714,-1.2953,-10.2903,0.2346,-0.7218,0.1074,0.0557
6722,-1.2881,-10.2041,0.2035,-0.7064,0.1098,0.0528
6730,-1.2857,-10.2615,0.2418,-0.6880,0.1082,0.0557
6738,-1.3001,-10.1538,0.2131,-0.6771,0.1087,0.0528
6746,-1.3192,-10.1418,0.2083,-0.6654,0.1082,0.0498
6754,-1.2665,-10.1849,0.2753,-0.6523,0.1100,0.0504
6762,-1.2857,-10.0940,0.1915,-0.6358,0.1095,0.0488
6770,-1.2641,-10.0892,0.2131,-0.6273,0.1108,0.0525
6778,-1.2737,-10.0796,0.1891,-0.6097,0.1090,0.0504
6786,-1.3575,-10.0365,0.2490,-0.5953,0.1085,0.0472
6794,-1.2713,-10.0317,0.1891,-0.5793,0.1082,0.0514
6802,-1.2043,-10.0365,0.1317,-0.5665,0.1108,0.0506
6810,-1.2594,-9.9455,0.2322,-0.5510,0.1090,0.0509
6818,-1.2809,-9.9575,0.2634,-0.5319,0.1071,0.0448
6827,-1.2354,-9.9048,0.2059,-0.5172,0.1074,0.0504
6834,-1.2091,-9.9311,0.2274,-0.5009,0.1079,0.0472
6842,-1.2402,-9.8474,0.2466,-0.4804,0.1071,0.0461
6850,-1.2594,-9.8066,0.1963,-0.4655,0.1082,0.0448
6858,-1.2881,-9.8641,0.3136,-0.4439,0.1026,0.0453
6866,-1.2354,-9.8474,0.2083,-0.4269,0.1037,0.0416
6874,-1.2115,-9.7923,0.1796,-0.4074,0.1021,0.0394
6882,-1.1851,-9.7755,0.2155,-0.3872,0.1005,0.0376
6890,-1.2474,-9.7444,0.2993,-0.3669,0.1018,0.0328
6898,-1.2330,-9.6941,0.3136,-0.3464,0.0949,0.0325
6906,-1.2689,-9.7588,0.2466,-0.3246,0.0949,0.0266
6915,-1.1899,-9.6750,0.2251,-0.3014,0.0949,0.0274
6922,-1.2450,-9.6391,0.2274,-0.2803,0.0903,0.0237
6930,-1.2306,-9.6869,0.1963,-0.2542,0.0885,0.0200
6938,-1.1947,-9.6582,0.1987,-0.2324,0.0834,0.0171
6946,-1.2378,-9.6295,0.2131,-0.2100,0.0807,0.0139
6955,-1.2091,-9.6271,0.3065,-0.1865,0.0783,0.0117
6962,-1.1444,-9.5816,0.2346,-0.1631,0.0719,0.0085
6970,-1.1923,-9.6367,0.2466,-0.1364,0.0674,0.0045
6978,-1.2282,-9.6367,0.2274,-0.1135,0.0690,0.0072
6986,-1.1708,-9.6247,0.2466,-0.0890,0.0565,0.0024
6994,-1.1899,-9.5864,0.3160,-0.0661,0.0464,-0.0008
7003,-1.1660,-9.5193,0.1652,-0.0386,0.0437,-0.0056
7010,-1.1708,-9.5720,0.2227,-0.0160,0.0378,-0.0088
7018,-1.1564,-9.5912,0.2035,0.0069,0.0296,-0.0064
7026,-1.2570,-9.5553,0.2801,0.0344,0.0245,-0.0080
7034,-1.1588,-9.5912,0.2514,0.0589,0.0160,-0.0099
7043,-1.2378,-9.6103,0.1652,0.0842,0.0085,-0.0120
7050,-1.2186,-9.5816,0.2394,0.1063,-0.0021,-0.0104
7058,-1.1923,-9.5936,0.2682,0.1298,-0.0056,-0.0133
7066,-1.2641,-9.6391,0.2179,0.1500,-0.0187,-0.0117
7074,-1.2737,-9.5840,0.2897,0.1724,-0.0258,-0.0107
7083,-1.1971,-9.5984,0.1963,0.1953,-0.0338,-0.0088
7090,-1.2043,-9.5960,0.1867,0.2198,-0.0424,-0.0109
7098,-1.2234,-9.6199,0.2322,0.2398,-0.0496,-0.0109
7106,-1.2641,-9.6534,0.2897,0.2601,-0.0578,-0.0059
7114,-1.2594,-9.6199,0.1245,0.2798,-0.0648,-0.0093
7122,-1.2330,-9.6606,0.1748,0.3030,-0.0741,-0.0104
7131,-1.2186,-9.6558,0.1221,0.3224,-0.0831,-0.0080
7138,-1.1995,-9.7252,0.2035,0.3427,-0.0877,-0.0099
7146,-1.2378,-9.7348,0.1628,0.3667,-0.0959,-0.0117
7154,-1.2689,-9.7851,0.0766,0.3880,-0.1031,-0.0099
7162,-1.2186,-9.7636,0.1269,0.4077,-0.1085,-0.0091
7171,-1.3001,-9.7372,0.2658,0.4269,-0.1199,-0.0125
7178,-1.2617,-9.7995,0.1484,0.4474,-0.1236,-0.0139
7186,-1.2713,-9.8306,0.2227,0.4700,-0.1348,-0.0160
7194,-1.3120,-9.8593,0.2801,0.4879,-0.1332,-0.0157
7202,-1.2881,-9.8976,0.1652,0.5052,-0.1410,-0.0160
7211,-1.2689,-9.9383,0.2203,0.5241,-0.1428,-0.0189
7219,-1.2594,-9.9503,0.2634,0.5412,-0.1415,-0.0168
7226,-1.2474,-9.9790,0.1484,0.5534,-0.1522,-0.0197
7234,-1.2617,-9.9407,0.2059,0.5716,-0.1503,-0.0234
7242,-1.2474,-9.9862,0.1748,0.5883,-0.1514,-0.0242
7250,-1.2809,-10.0724,0.1437,0.6001,-0.1522,-0.0256
7259,-1.2641,-10.0485,0.0192,0.6134,-0.1529,-0.0290
7266,-1.2474,-10.0485,0.0742,0.6257,-0.1551,-0.0277
7274,-1.2809,-10.0892,0.0670,0.6424,-0.1535,-0.0314
7282,-1.3288,-10.1323,0.0814,0.6491,-0.1540,-0.0312
7290,-1.2546,-10.1993,0.0838,0.6686,-0.1620,-0.0338
7299,-1.3048,-10.1682,0.2227,0.6784,-0.1615,-0.0325
7307,-1.2929,-10.1897,0.2035,0.6880,-0.1553,-0.0362
7314,-1.2953,-10.2041,0.1532,0.6992,-0.1596,-0.0346
7322,-1.3312,-10.2687,0.0814,0.7083,-0.1599,-0.0346
7330,-1.3216,-10.2831,0.1245,0.7194,-0.1599,-0.0354
7339,-1.3072,-10.1897,0.1030,0.7298,-0.1575,-0.0373
7347,-1.3192,-10.2975,0.1125,0.7394,-0.1593,-0.0376
7354,-1.2953,-10.3286,0.1006,0.7493,-0.1593,-0.0392
7362,-1.3623,-10.3094,0.1221,0.7546,-0.1583,-0.0368
7370,-1.3096,-10.3621,0.0790,0.7594,-0.1572,-0.0314
7378,-1.3120,-10.3262,0.1197,0.7690,-0.1596,-0.0354
7387,-1.2881,-10.4124,0.1269,0.7738,-0.1607,-0.0354
7395,-1.2809,-10.4172,0.0335,0.7805,-0.1647,-0.0373
7402,-1.3695,-10.4100,0.1796,0.7877,-0.1620,-0.0309
7410,-1.3216,-10.3813,0.1006,0.7962,-0.1671,-0.0333
7418,-1.3743,-10.3717,0.2538,0.8023,-0.1657,-0.0290
7427,-1.3838,-10.4435,0.1101,0.8066,-0.1625,-0.0309
7435,-1.3001,-10.4220,0.1460,0.8090,-0.1668,-0.0298
7442,-1.3503,-10.4579,0.0718,0.8186,-0.1684,-0.0277
7450,-1.2809,-10.4770,0.0096,0.8231,-0.1671,-0.0258
7458,-1.3288,-10.4028,0.0168,0.8247,-0.1687,-0.0269
7467,-1.3815,-10.4651,0.0646,0.8282,-0.1703,-0.0250
7475,-1.3048,-10.5345,0.0215,0.8271,-0.1692,-0.0282
7483,-1.3240,-10.4459,0.0742,0.8298,-0.1663,-0.0264
7490,-1.3934,-10.5058,0.0790,0.8274,-0.1631,-0.0266
7498,-1.3838,-10.4866,0.0383,0.8279,-0.1697,-0.0264
7506,-1.3575,-10.4363,0.0335,0.8327,-0.1625,-0.0253
7515,-1.3216,-10.5058,0.1030,0.8268,-0.1649,-0.0248
7523,-1.3767,-10.4579,0.0886,0.8231,-0.1676,-0.0269
7530,-1.3024,-10.4315,0.0311,0.8199,-0.1668,-0.0266
7538,-1.3575,-10.4244,-0.0215,0.8172,-0.1644,-0.0261
7546,-1.3695,-10.4004,0.0383,0.8132,-0.1660,-0.0242
7555,-1.3120,-10.4627,0.1101,0.8090,-0.1633,-0.0248
7563,-1.3024,-10.4363,0.0359,0.8007,-0.1647,-0.0269
7570,-1.3455,-10.4220,0.1101,0.7975,-0.1652,-0.0253
7578,-1.3096,-10.4411,0.1006,0.7895,-0.1641,-0.0242
7586,-1.3695,-10.4124,0.0503,0.7821,-0.1604,-0.0240
7595,-1.3431,-10.3477,0.1101,0.7754,-0.1599,-0.0226
7603,-1.2929,-10.3908,0.0359,0.7650,-0.1657,-0.0216
7611,-1.3096,-10.3789,0.0168,0.7578,-0.1601,-0.0232
7618,-1.3048,-10.3094,0.0263,0.7464,-0.1585,-0.0216
7626,-1.2426,-10.3382,0.0120,0.7365,-0.1553,-0.0211
7634,-1.3072,-10.2927,0.0359,0.7280,-0.1569,-0.0197
7643,-1.3288,-10.2879,0.1197,0.7149,-0.1532,-0.0160
7651,-1.3288,-10.2520,-0.0072,0.7013,-0.1524,-0.0152
7658,-1.3072,-10.2161,0.0646,0.6875,-0.1516,-0.0163
7666,-1.2833,-10.2089,0.0431,0.6789,-0.1490,-0.0152
7674,-1.2929,-10.1778,0.0096,0.6643,-0.1479,-0.0107
7683,-1.2833,-10.1083,-0.0072,0.6552,-0.1484,-0.0107
7691,-1.2881,-10.1754,-0.0192,0.6363,-0.1492,-0.0040
7699,-1.2522,-10.0700,0.0934,0.6233,-0.1452,-0.0024
7706,-1.2594,-10.1323,-0.0527,0.6086,-0.1447,-0.0029
7714,-1.3216,-10.0700,0.0790,0.5955,-0.1404,-0.0008
7723,-1.2905,-10.0533,0.0479,0.5838,-0.1410,0.0003
7731,-1.2498,-10.0245,-0.0455,0.5673,-0.1388,0.0019
7739,-1.3001,-9.9599,-0.0383,0.5526,-0.1383,0.0069
7746,-1.2809,-9.9982,0.0024,0.5385,-0.1324,0.0083
7754,-1.2833,-10.0269,-0.0934,0.5231,-0.1303,0.0131
7762,-1.2665,-9.9407,0.0192,0.5081,-0.1298,0.0120
7771,-1.3024,-9.9024,-0.0168,0.4922,-0.1250,0.0160
7779,-1.2354,-9.9503,-0.0263,0.4759,-0.1194,0.0203
7787,-1.2282,-9.8330,0.0239,0.4557,-0.1162,0.0221
7794,-1.2474,-9.8497,-0.0407,0.4402,-0.1164,0.0232
7802,-1.2881,-9.8474,-0.0742,0.4175,-0.1100,0.0264
7811,-1.2785,-9.8474,-0.0479,0.3994,-0.1066,0.0304
7819,-1.2450,-9.8043,-0.0503,0.3832,-0.1031,0.0298
7827,-1.2689,-9.8162,-0.0192,0.3680,-0.0962,0.0325
7834,-1.2258,-9.7420,0.0192,0.3480,-0.0946,0.0306
7842,-1.2641,-9.7707,-0.0407,0.3262,-0.0890,0.0370
7851,-1.2091,-9.7324,0.0048,0.3096,-0.0818,0.0365
7859,-1.2210,-9.7372,-0.0335,0.2883,-0.0759,0.0320
7867,-1.2354,-9.6941,0.0096,0.2761,-0.0703,0.0346
7875,-1.2713,-9.7276,-0.0144,0.2595,-0.0671,0.0368
7882,-1.2570,-9.7252,-0.0359,0.2369,-0.0618,0.0328
7890,-1.2139,-9.6534,0.0575,0.2169,-0.0584,0.0368
7899,-1.3216,-9.6223,0.0192,0.1980,-0.0517,0.0400
7907,-1.2139,-9.5912,-0.0096,0.1743,-0.0450,0.0408
7915,-1.2498,-9.6175,-0.0383,0.1567,-0.0413,0.0402
7922,-1.1923,-9.6271,-0.0335,0.1324,-0.0328,0.0458
7930,-1.2139,-9.5936,0.0383,0.1116,-0.0280,0.0448
7939,-1.2210,-9.5936,0.0383,0.0871,-0.0221,0.0498
7947,-1.1588,-9.6486,-0.0072,0.0717,-0.0195,0.0498
7955,-1.2402,-9.6151,0.0431,0.0469,-0.0112,0.0496
7963,-1.1803,-9.6055,-0.0551,0.0280,-0.0107,0.0498
7970,-1.2426,-9.5888,0.0575,0.0005,-0.0013,0.0549
7979,-1.3072,-9.5624,-0.0886,-0.0163,0.0021,0.0586
7987,-1.1947,-9.5984,0.0742,-0.0397,0.0083,0.0626
7995,-1.2258,-9.6295,-0.0718,-0.0629,0.0117,0.0645
8003,-1.2043,-9.6391,0.0263,-0.0845,0.0192,0.0658
8010,-1.2186,-9.5648,0.0670,-0.1034,0.0213,0.0674
8018,-1.2546,-9.6247,-0.0886,-0.1247,0.0245,0.0677
8027,-1.2450,-9.6223,0.0646,-0.1455,0.0322,0.0727
8035,-1.2402,-9.6175,0.0072,-0.1649,0.0370,0.0775
8043,-1.2282,-9.6486,-0.0814,-0.1897,0.0434,0.0767
8051,-1.1732,-9.6462,-0.0096,-0.2113,0.0464,0.0842
8058,-1.2234,-9.7324,0.0239,-0.2353,0.0504,0.0853
8067,-1.2570,-9.6798,0.0120,-0.2502,0.0552,0.0882
8075,-1.2546,-9.7085,0.0718,-0.2758,0.0600,0.0938
8083,-1.2402,-9.7516,-0.0455,-0.2950,0.0637,0.0935
8091,-1.2163,-9.7492,-0.0718,-0.3174,0.0687,0.0935
8098,-1.2234,-9.6798,0.0287,-0.3352,0.0781,0.0967
8107,-1.2402,-9.7683,-0.0646,-0.3600,0.0826,0.0975
8115,-1.2713,-9.7181,-0.0239,-0.3762,0.0914,0.0986
8123,-1.2546,-9.7995,0.0670,-0.4000,0.0927,0.0973
8131,-1.2354,-9.8019,-0.0192,-0.4175,0.0991,0.0989
8139,-1.2234,-9.8665,0.0766,-0.4381,0.1082,0.0970
8146,-1.2594,-9.8569,0.1413,-0.4543,0.1098,0.0986
8155,-1.2402,-9.8737,0.0311,-0.4703,0.1180,0.0973
8163,-1.2067,-9.9311,0.0168,-0.4847,0.1255,0.0986
8171,-1.2905,-9.9311,-0.0096,-0.5031,0.1311,0.0959
8179,-1.2761,-9.9479,-0.0096,-0.5196,0.1364,0.0983
8186,-1.2522,-9.9599,0.1341,-0.5281,0.1420,0.0978
8195,-1.2689,-10.0102,0.0551,-0.5388,0.1466,0.0962
8203,-1.3264,-9.9982,0.0048,-0.5526,0.1508,0.0946
8211,-1.3001,-10.0221,0.0694,-0.5670,0.1532,0.0919
8219,-1.2306,-10.0748,0.1053,-0.5745,0.1609,0.0919
8227,-1.2139,-10.0676,0.1891,-0.5846,0.1631,0.0911
8235,-1.3096,-10.0700,0.0934,-0.5995,0.1665,0.0933
8243,-1.3312,-10.1418,0.0862,-0.6073,0.1695,0.0909
8251,-1.2689,-10.1418,0.1389,-0.6177,0.1729,0.0914
8259,-1.2785,-10.1730,0.1053,-0.6249,0.1764,0.0887
8267,-1.2378,-10.1490,0.0838,-0.6352,0.1756,0.0914
8274,-1.3527,-10.1490,0.0575,-0.6462,0.1772,0.0893
8283,-1.3168,-10.2017,0.1652,-0.6550,0.1751,0.0898
8291,-1.3240,-10.2065,0.0144,-0.6646,0.1812,0.0903
8299,-1.2641,-10.2256,0.0503,-0.6715,0.1793,0.0922
8307,-1.3168,-10.2376,0.0910,-0.6805,0.1775,0.0909
8315,-1.2737,-10.2520,0.1437,-0.6915,0.1732,0.0951
8323,-1.3168,-10.3118,0.1317,-0.6971,0.1743,0.0925
8331,-1.3384,-10.2711,0.0407,-0.7061,0.1711,0.0935
8339,-1.3216,-10.3190,0.0982,-0.7141,0.1748,0.0951
8347,-1.3240,-10.2663,0.1197,-0.7224,0.1711,0.0922
8355,-1.3479,-10.3645,0.1556,-0.7272,0.1609,0.0954
8363,-1.2905,-10.3166,0.1580,-0.7365,0.1631,0.0946
8371,-1.3934,-10.3549,0.1437,-0.7432,0.1647,0.0941
8379,-1.3192,-10.3789,0.0958,-0.7517,0.1583,0.0962
8387,-1.2977,-10.3549,0.1101,-0.7594,0.1569,0.0941
8395,-1.3001,-10.3956,0.1293,-0.7631,0.1545,0.0975
8402,-1.2163,-10.4196,0.1437,-0.7711,0.1450,0.0967
8411,-1.3264,-10.4052,0.1221,-0.7778,0.1479,0.0898
8419,-1.2881,-10.3573,0.1245,-0.7813,0.1442,0.0911
8427,-1.3408,-10.4172,0.1269,-0.7858,0.1423,0.0927
8435,-1.3264,-10.4076,0.1628,-0.7898,0.1346,0.0885
8443,-1.3551,-10.3741,0.1460,-0.7895,0.1356,0.0906
8451,-1.3001,-10.4339,0.0886,-0.7933,0.1322,0.0855
8459,-1.2929,-10.4698,0.1700,-0.7914,0.1343,0.0831
8467,-1.3120,-10.4196,0.1724,-0.7927,0.1260,0.0858
8475,-1.3240,-10.4052,0.2418,-0.7954,0.1276,0.0813
8483,-1.3288,-10.4100,0.2538,-0.7922,0.1226,0.0794
8491,-1.3312,-10.3908,0.2203,-0.7861,0.1210,0.0802
8499,-1.2546,-10.3956,0.2059,-0.7834,0.1234,0.0778
8507,-1.3072,-10.4818,0.2801,-0.7802,0.1196,0.0765
8515,-1.2953,-10.4052,0.1676,-0.7767,0.1183,0.0695
8523,-1.3288,-10.3813,0.2227,-0.7698,0.1159,0.0693
8531,-1.3240,-10.3358,0.2131,-0.7623,0.1175,0.0687
8539,-1.3384,-10.3645,0.1197,-0.7530,0.1199,0.0616
8547,-1.3072,-10.3286,0.2346,-0.7453,0.1154,0.0642
8555,-1.2761,-10.3214,0.2322,-0.7376,0.1143,0.0640
8563,-1.2857,-10.3118,0.1939,-0.7320,0.1116,0.0629
8571,-1.2665,-10.2544,0.2131,-0.7181,0.1095,0.0578
8579,-1.2881,-10.2879,0.2873,-0.7075,0.1106,0.0570
8587,-1.2977,-10.2448,0.2634,-0.6944,0.1100,0.0562
8595,-1.3264,-10.2568,0.2370,-0.6843,0.1124,0.0549
8603,-1.2809,-10.1969,0.2155,-0.6718,0.1082,0.0544
8611,-1.2378,-10.1730,0.2155,-0.6611,0.1053,0.0541
8620,-1.2833,-10.1801,0.1939,-0.6486,0.1039,0.0562
8627,-1.2641,-10.2137,0.2035,-0.6344,0.1071,0.0530
8635,-1.3144,-10.1825,0.1628,-0.6235,0.1063,0.0528
8643,-1.2426,-10.1849,0.3041,-0.6105,0.1034,0.0528
8651,-1.2641,-10.0892,0.2131,-0.5987,0.1085,0.0506
8659,-1.3120,-10.0221,0.2658,-0.5899,0.1026,0.0528
8667,-1.2426,-10.0221,0.2562,-0.5708,0.1005,0.0498
8675,-1.2689,-10.0341,0.2227,-0.5614,0.1029,0.0482
8683,-1.3024,-10.0245,0.2035,-0.5454,0.1002,0.0474
8691,-1.2929,-9.9958,0.2346,-0.5332,0.1007,0.0496
8699,-1.2522,-9.9766,0.2107,-0.5209,0.0999,0.0448
8708,-1.2881,-9.9455,0.2227,-0.5081,0.0997,0.0453
8715,-1.2474,-9.8713,0.2011,-0.4895,0.0986,0.0474
8723,-1.2426,-9.9383,0.2155,-0.4783,0.0967,0.0426
8731,-1.2594,-9.8713,0.1652,-0.4628,0.0954,0.0429
8739,-1.2282,-9.8689,0.2131,-0.4461,0.0991,0.0392
8748,-1.2426,-9.8809,0.2418,-0.4293,0.0949,0.0349
8755,-1.1756,-9.8306,0.2825,-0.4159,0.0933,0.0352
8763,-1.2713,-9.9048,0.1963,-0.4016,0.0957,0.0317
8771,-1.2139,-9.7420,0.1508,-0.3808,0.0922,0.0314
8779,-1.2186,-9.7468,0.2777,-0.3659,0.0903,0.0269
8787,-1.1875,-9.8258,0.1820,-0.3445,0.0893,0.0224
8796,-1.1971,-9.7971,0.2035,-0.3256,0.0885,0.0224
8803,-1.1995,-9.7252,0.3256,-0.3099,0.0834,0.0179
8811,-1.2498,-9.7636,0.2586,-0.2918,0.0826,0.0163
8819,-1.1851,-9.6750,0.2251,-0.2715,0.0837,0.0128
8827,-1.2091,-9.6774,0.1963,-0.2502,0.0781,0.0101
8836,-1.1875,-9.6941,0.2634,-0.2302,0.0765,0.0088
8843,-1.2474,-9.6678,0.3448,-0.2065,0.0709,0.0088
8851,-1.2354,-9.6630,0.2251,-0.1860,0.0687,0.0029
8859,-1.2354,-9.6462,0.2825,-0.1649,0.0621,0.0035
8867,-1.2354,-9.6486,0.1700,-0.1442,0.0594,-0.0013
8876,-1.1947,-9.6606,0.1460,-0.1194,0.0549,-0.0016
8884,-1.1875,-9.5864,0.3160,-0.0989,0.0488,-0.0019
8891,-1.1947,-9.6582,0.2849,-0.0759,0.0429,-0.0048
8899,-1.2163,-9.6271,0.3328,-0.0533,0.0352,-0.0045
8907,-1.2546,-9.5960,0.2059,-0.0309,0.0322,-0.0088
8915,-1.2043,-9.6223,0.2682,-0.0072,0.0269,-0.0072
8924,-1.1540,-9.6007,0.2298,0.0173,0.0181,-0.0069
8931,-1.1995,-9.6055,0.2394,0.0362,0.0125,-0.0091
8939,-1.2186,-9.5864,0.1724,0.0602,0.0072,-0.0056
8947,-1.2450,-9.6007,0.1700,0.0815,-0.0035,-0.0101
8955,-1.1995,-9.6079,0.2801,0.1061,-0.0096,-0.0109
8964,-1.2234,-9.6486,0.2322,0.1263,-0.0192,-0.0109
8972,-1.1899,-9.6630,0.2538,0.1466,-0.0280,-0.0104
8979,-1.2617,-9.6438,0.2179,0.1671,-0.0325,-0.0099
8987,-1.2522,-9.6726,0.2370,0.1900,-0.0373,-0.0096
8995,-1.1492,-9.6223,0.2179,0.2057,-0.0456,-0.0125
9004,-1.2402,-9.7037,0.2322,0.2260,-0.0562,-0.0112
9012,-1.2282,-9.6654,0.1772,0.2454,-0.0578,-0.0109
9019,-1.2043,-9.7133,0.1604,0.2635,-0.0666,-0.0141
9027,-1.2139,-9.7229,0.1365,0.2819,-0.0711,-0.0141
9035,-1.2186,-9.6965,0.2227,0.3040,-0.0781,-0.0147
9043,-1.1971,-9.7348,0.1724,0.3198,-0.0837,-0.0168
9052,-1.2546,-9.8210,0.1987,0.3413,-0.0893,-0.0179
9059,-1.2234,-9.7707,0.1269,0.3624,-0.0997,-0.0179
9067,-1.2354,-9.7396,0.1820,0.3770,-0.1018,-0.0197
9075,-1.2594,-9.7923,0.1939,0.3944,-0.1077,-0.0240
9083,-1.2617,-9.8593,0.2059,0.4159,-0.1132,-0.0203
9092,-1.2091,-9.8354,0.1365,0.4325,-0.1188,-0.0253
9100,-1.2689,-9.8881,0.1125,0.4474,-0.1236,-0.0216
9107,-1.2833,-9.8617,0.0479,0.4660,-0.1242,-0.0245
9115,-1.2402,-9.9168,0.2227,0.4807,-0.1319,-0.0277
9123,-1.2450,-9.8833,0.1437,0.4943,-0.1311,-0.0264
9132,-1.2378,-9.9766,0.2011,0.5097,-0.1388,-0.0312
9140,-1.3072,-9.9455,0.1413,0.5247,-0.1354,-0.0298
9147,-1.2833,-9.9695,0.2083,0.5361,-0.1410,-0.0285
9155,-1.3192,-9.9982,0.1293,0.5489,-0.1391,-0.0290
9163,-1.2761,-10.0293,0.1365,0.5644,-0.1423,-0.0309
9171,-1.2474,-10.0676,0.1987,0.5729,-0.1423,-0.0314
9180,-1.3072,-10.0509,0.2466,0.5878,-0.1436,-0.0312
9188,-1.2258,-10.1275,0.1077,0.5990,-0.1436,-0.0298
9195,-1.2953,-10.0796,0.1724,0.6105,-0.1490,-0.0306
9203,-1.2522,-10.2185,0.1844,0.6235,-0.1439,-0.0306
9211,-1.2881,-10.1466,0.1030,0.6331,-0.1463,-0.0328
9220,-1.2594,-10.1514,0.1676,0.6430,-0.1460,-0.0317
9228,-1.2881,-10.1658,0.1006,0.6544,-0.1463,-0.0293
9235,-1.3431,-10.1754,0.1508,0.6638,-0.1450,-0.0301
9243,-1.3503,-10.2400,0.1652,0.6718,-0.1460,-0.0304
9251,-1.2833,-10.2280,0.0503,0.6787,-0.1452,-0.0312
9260,-1.3168,-10.2041,0.0431,0.6869,-0.1439,-0.0312
9268,-1.2953,-10.2639,0.0694,0.6957,-0.1447,-0.0306
9276,-1.2785,-10.2568,0.1006,0.7013,-0.1415,-0.0306
9283,-1.3264,-10.3094,0.1987,0.7075,-0.1458,-0.0288
9291,-1.2905,-10.3142,0.1460,0.7133,-0.1439,-0.0304
9299,-1.3192,-10.2711,0.0527,0.7194,-0.1466,-0.0290
9308,-1.3024,-10.3022,0.0215,0.7274,-0.1407,-0.0282
9316,-1.3431,-10.3549,0.1269,0.7322,-0.1418,-0.0277
9323,-1.3072,-10.2975,0.1772,0.7378,-0.1402,-0.0269
9331,-1.3024,-10.3693,0.0766,0.7429,-0.1444,-0.0280
9339,-1.2617,-10.3334,0.0694,0.7461,-0.1420,-0.0277
9348,-1.3336,-10.3477,0.0814,0.7488,-0.1452,-0.0269
9356,-1.2833,-10.3573,0.1508,0.7530,-0.1420,-0.0269
9364,-1.3431,-10.3908,0.0646,0.7544,-0.1442,-0.0280
9371,-1.3551,-10.3286,0.0455,0.7608,-0.1450,-0.0293
9379,-1.3408,-10.3884,0.0814,0.7589,-0.1436,-0.0282
9388,-1.3408,-10.3980,0.0024,0.7597,-0.1442,-0.0258
9396,-1.3384,-10.3621,0.0694,0.7589,-0.1436,-0.0280
9404,-1.3647,-10.3166,0.0575,0.7578,-0.1420,-0.0269
9411,-1.2809,-10.3238,0.1149,0.7573,-0.1452,-0.0253
9419,-1.3024,-10.3166,0.0862,0.7578,-0.1410,-0.0242
9427,-1.3336,-10.3765,0.0694,0.7522,-0.1447,-0.0248
9436,-1.3527,-10.3382,0.0982,0.7464,-0.1450,-0.0229
9444,-1.3144,-10.4004,0.0335,0.7437,-0.1452,-0.0229
9452,-1.3144,-10.3549,0.0527,0.7386,-0.1471,-0.0237
9459,-1.2953,-10.2975,0.0790,0.7362,-0.1450,-0.0218
9467,-1.3623,-10.3142,-0.0215,0.7293,-0.1444,-0.0189
9476,-1.3096,-10.3453,0.0431,0.7240,-0.1463,-0.0173
9484,-1.2905,-10.2927,-0.0622,0.7210,-0.1466,-0.0192
9492,-1.3168,-10.2855,0.0718,0.7117,-0.1463,-0.0187
9499,-1.3384,-10.2831,0.0646,0.7029,-0.1442,-0.0155
9507,-1.3503,-10.2759,-0.0096,0.6995,-0.1466,-0.0104
9516,-1.3024,-10.2639,0.0239,0.6901,-0.1463,-0.0125
9524,-1.2929,-10.2304,0.0215,0.6800,-0.1452,-0.0085
9532,-1.2833,-10.2137,0.0838,0.6702,-0.1428,-0.0075
9539,-1.2665,-10.1562,0.0455,0.6587,-0.1394,-0.0096
9547,-1.2881,-10.1682,0.1269,0.6499,-0.1412,-0.0045
9555,-1.2881,-10.1730,-0.0168,0.6384,-0.1410,-0.0003
9564,-1.3288,-10.1873,-0.0742,0.6267,-0.1412,-0.0013
9572,-1.3072,-10.1251,-0.0192,0.6155,-0.1372,0.0005
9580,-1.2833,-10.1945,-0.0120,0.6051,-0.1396,0.0043
9587,-1.2546,-10.0963,0.0048,0.5931,-0.1370,0.0045
9595,-1.3096,-10.0844,-0.0551,0.5828,-0.1359,0.0059
9604,-1.2594,-10.0940,0.0096,0.5716,-0.1338,0.0069
9612,-1.2689,-10.0413,0.0096,0.5548,-0.1335,0.0104
9620,-1.2546,-10.0221,-0.0144,0.5420,-0.1287,0.0091
9627,-1.2833,-9.9742,0.0383,0.5260,-0.1298,0.0120
9635,-1.2689,-10.0700,0.0359,0.5143,-0.1266,0.0131
9644,-1.2953,-9.9886,-0.0215,0.5009,-0.1223,0.0176
9652,-1.3120,-10.0102,0.0335,0.4866,-0.1204,0.0157
9660,-1.3144,-9.9096,-0.0215,0.4756,-0.1164,0.0173
9668,-1.2402,-9.9503,0.0383,0.4580,-0.1172,0.0187
9675,-1.2665,-9.8857,-0.0503,0.4423,-0.1132,0.0216
9683,-1.3144,-9.9168,0.0383,0.4266,-0.1132,0.0237
9692,-1.2306,-9.8689,0.0048,0.4138,-0.1071,0.0237
9700,-1.2713,-9.8330,0.0455,0.3944,-0.1034,0.0258
9708,-1.2929,-9.8210,0.0120,0.3744,-0.0975,0.0296
9715,-1.2474,-9.8282,0.0455,0.3621,-0.0954,0.0309
9723,-1.2594,-9.8138,0.0215,0.3435,-0.0911,0.0298
9732,-1.2594,-9.8138,-0.0192,0.3259,-0.0861,0.0368
9740,-1.2570,-9.7612,0.0072,0.3059,-0.0826,0.0384
9748,-1.1995,-9.7396,0.0670,0.2915,-0.0757,0.0389
9756,-1.2522,-9.7540,0.0287,0.2758,-0.0733,0.0376
9763,-1.2785,-9.7205,0.0982,0.2582,-0.0661,0.0368
9772,-1.2402,-9.7181,-0.0168,0.2425,-0.0653,0.0392
9780,-1.2450,-9.7157,0.0192,0.2209,-0.0560,0.0410
9788,-1.2522,-9.7300,-0.0359,0.2076,-0.0592,0.0386
9796,-1.2330,-9.6965,0.0431,0.1903,-0.0509,0.0437
9803,-1.1660,-9.6798,0.1006,0.1705,-0.0461,0.0437
9811,-1.1947,-9.6079,-0.0335,0.1506,-0.0450,0.0450
9820,-1.1971,-9.6678,0.0048,0.1314,-0.0357,0.0485
9828,-1.2019,-9.6438,0.0024,0.1127,-0.0314,0.0538
9836,-1.2402,-9.6941,0.0814,0.0943,-0.0282,0.0544
9844,-1.2450,-9.6486,0.0072,0.0751,-0.0208,0.0565
9851,-1.2546,-9.6199,-0.0072,0.0552,-0.0149,0.0576
9860,-1.1971,-9.6151,-0.0814,0.0333,-0.0120,0.0618
9868,-1.2210,-9.6822,0.0383,0.0157,-0.0077,0.0661
9876,-1.2186,-9.6630,0.0239,-0.0069,0.0005,0.0682
9884,-1.1923,-9.6247,-0.0215,-0.0229,0.0029,0.0679
9891,-1.3001,-9.6391,0.0431,-0.0445,0.0083,0.0698
9900,-1.2641,-9.6989,-0.0383,-0.0602,0.0131,0.0679
9908,-1.2139,-9.6414,0.0718,-0.0842,0.0165,0.0743
9916,-1.2905,-9.6678,-0.0670,-0.1013,0.0229,0.0751
9924,-1.2234,-9.6654,-0.0215,-0.1210,0.0253,0.0794
9932,-1.2474,-9.6845,0.0551,-0.1402,0.0338,0.0813
9939,-1.3144,-9.7061,-0.0479,-0.1591,0.0362,0.0831
9948,-1.2426,-9.6654,0.0144,-0.1815,0.0437,0.0834
9956,-1.2522,-9.6558,-0.0311,-0.1972,0.0434,0.0861
9964,-1.1540,-9.7037,0.1006,-0.2209,0.0512,0.0858
9972,-1.2450,-9.7396,-0.0239,-0.2382,0.0546,0.0911
9979,-1.2570,-9.7037,-0.0407,-0.2598,0.0597,0.0911
9988,-1.2833,-9.7659,0.0862,-0.2809,0.0645,0.0911
9996,-1.2833,-9.7420,0.0790,-0.2998,0.0663,0.0959
10004,-1.2617,-9.7444,0.0862,-0.3171,0.0783,0.0919
10012,-1.2306,-9.7923,-0.1030,-0.3349,0.0797,0.0949
10019,-1.2043,-9.7707,0.0431,-0.3549,0.0879,0.0967
10028,-1.2019,-9.8234,0.0168,-0.3728,0.0965,0.0957
10036,-1.2306,-9.9072,0.0599,-0.3917,0.0986,0.0970
10044,-1.1923,-9.8210,-0.0096,-0.4085,0.1031,0.0967
10052,-1.2761,-9.8593,0.0575,-0.4253,0.1050,0.0933
10060,-1.1899,-9.8952,0.0287,-0.4394,0.1108,0.0951
10067,-1.2785,-9.8928,0.0024,-0.4567,0.1196,0.0951
10076,-1.2450,-9.9288,0.0910,-0.4679,0.1228,0.0925
10084,-1.2210,-9.9623,0.0215,-0.4807,0.1316,0.0933
10092,-1.2402,-9.9599,0.0431,-0.4924,0.1316,0.0930
10100,-1.2522,-9.9838,0.0670,-0.5052,0.1354,0.0933
10107,-1.2522,-10.0245,0.1221,-0.5132,0.1396,0.0943
10116,-1.2522,-10.0006,0.0503,-0.5260,0.1410,0.0954
10124,-1.2306,-9.9742,0.1700,-0.5305,0.1455,0.0911
10132,-1.2594,-9.9886,0.0982,-0.5417,0.1468,0.0941
10140,-1.3001,-10.0437,0.1365,-0.5518,0.1455,0.0911
10148,-1.3216,-10.0341,0.0646,-0.5593,0.1527,0.0927
10156,-1.3048,-10.1035,0.0814,-0.5700,0.1543,0.0922
10164,-1.2713,-10.0963,0.0599,-0.5769,0.1564,0.0906
10172,-1.2881,-10.0652,0.0670,-0.5844,0.1553,0.0909
10180,-1.2330,-10.1059,0.1293,-0.5947,0.1583,0.0919
10188,-1.2546,-10.1562,0.0958,-0.6003,0.1567,0.0922
10195,-1.2929,-10.1658,0.1245,-0.6097,0.1596,0.0938
10204,-1.3360,-10.1562,0.1101,-0.6193,0.1599,0.0954
10212,-1.3001,-10.2017,0.1724,-0.6265,0.1545,0.0951
10220,-1.2953,-10.2687,0.1389,-0.6315,0.1559,0.0927
10228,-1.3216,-10.2472,0.0407,-0.6382,0.1548,0.0917
10236,-1.3168,-10.2999,0.0359,-0.6443,0.1561,0.0949
10244,-1.2833,-10.2711,0.1580,-0.6526,0.1556,0.0919
10252,-1.3431,-10.2520,0.1149,-0.6616,0.1514,0.0927
10260,-1.2378,-10.2879,0.1628,-0.6662,0.1500,0.0927
10268,-1.2617,-10.2639,0.0599,-0.6749,0.1490,0.0914
10276,-1.3240,-10.2328,0.2658,-0.6813,0.1482,0.0890
10284,-1.3479,-10.2639,0.1652,-0.6877,0.1463,0.0879
10292,-1.3527,-10.2903,0.1676,-0.6968,0.1442,0.0901
10300,-1.3671,-10.3238,0.1341,-0.7019,0.1410,0.0882
10308,-1.2761,-10.2735,0.1413,-0.7083,0.1412,0.0890
10316,-1.2833,-10.2951,0.2274,-0.7136,0.1367,0.0837
10324,-1.3168,-10.2903,0.1963,-0.7165,0.1343,0.0869
10332,-1.2833,-10.3980,0.1963,-0.7197,0.1319,0.0850
10340,-1.3144,-10.3382,0.2011,-0.7245,0.1298,0.0845
10348,-1.2474,-10.3789,0.1628,-0.7290,0.1308,0.0813
10356,-1.3288,-10.3190,0.1915,-0.7288,0.1303,0.0799
10364,-1.3431,-10.3118,0.1556,-0.7253,0.1284,0.0749
10372,-1.3168,-10.3956,0.0622,-0.7282,0.1242,0.0741
10380,-1.3240,-10.3046,0.2035,-0.7253,0.1207,0.0751
10388,-1.3791,-10.3166,0.1053,-0.7221,0.1218,0.0717
10396,-1.3336,-10.3214,0.0982,-0.7216,0.1226,0.0725
10404,-1.2953,-10.2975,0.1508,-0.7173,0.1191,0.0701
10413,-1.2953,-10.3166,0.1724,-0.7133,0.1183,0.0690
10420,-1.3048,-10.3190,0.2514,-0.7067,0.1162,0.0663
10428,-1.3479,-10.2783,0.1245,-0.7005,0.1143,0.0658
10436,-1.2857,-10.3022,0.2059,-0.6931,0.1138,0.0663
10444,-1.3144,-10.2759,0.2514,-0.6856,0.1148,0.0629
10452,-1.3096,-10.3022,0.2274,-0.6779,0.1100,0.0600
10460,-1.2833,-10.2208,0.2274,-0.6696,0.1085,0.0608
10468,-1.3312,-10.1969,0.2418,-0.6587,0.1074,0.0586
10476,-1.2210,-10.1634,0.1867,-0.6496,0.1074,0.0570
10484,-1.2881,-10.1706,0.1915,-0.6408,0.1077,0.0568
10492,-1.2665,-10.1706,0.2682,-0.6297,0.1042,0.0560
10501,-1.2929,-10.2137,0.2370,-0.6174,0.1047,0.0544
10508,-1.2881,-10.1730,0.2059,-0.6097,0.1029,0.0536
10516,-1.2881,-10.1203,0.2562,-0.5977,0.1007,0.0501
10524,-1.2929,-10.0916,0.2083,-0.5849,0.0997,0.0482
10532,-1.2737,-10.1011,0.1963,-0.5745,0.0978,0.0485
10541,-1.2809,-10.0700,0.1867,-0.5620,0.0938,0.0464
10548,-1.3216,-10.0796,0.2227,-0.5481,0.0954,0.0450
10556,-1.3408,-10.0341,0.1772,-0.5399,0.0946,0.0450
10564,-1.2546,-10.0389,0.2897,-0.5252,0.0967,0.0434
10572,-1.2354,-10.0293,0.2322,-0.5151,0.0914,0.0410
10580,-1.2498,-10.0221,0.1532,-0.5044,0.0954,0.0381
10589,-1.3072,-9.9527,0.1915,-0.4919,0.0906,0.0376
10596,-1.3168,-10.0006,0.2035,-0.4796,0.0890,0.0386
10604,-1.2713,-9.9096,0.1173,-0.4668,0.0855,0.0381
10612,-1.2186,-9.9742,0.3017,-0.4530,0.0877,0.0320
10620,-1.2474,-9.9311,0.2322,-0.4423,0.0879,0.0312
10629,-1.2354,-9.8976,0.1987,-0.4319,0.0858,0.0312
10636,-1.1827,-9.8689,0.1891,-0.4159,0.0831,0.0285
10644,-1.1875,-9.8043,0.1676,-0.4005,0.0807,0.0266
10652,-1.2019,-9.8497,0.1556,-0.3858,0.0786,0.0280
10660,-1.2594,-9.8162,0.1963,-0.3722,0.0810,0.0240
10669,-1.2498,-9.8234,0.2131,-0.3563,0.0802,0.0218
10677,-1.1827,-9.8138,0.1772,-0.3408,0.0759,0.0200
10684,-1.2809,-9.7971,0.1844,-0.3254,0.0749,0.0192
10692,-1.2139,-9.7827,0.2059,-0.3086,0.0727,0.0157
10700,-1.1851,-9.7755,0.1748,-0.2888,0.0717,0.0128
10708,-1.2378,-9.7133,0.2251,-0.2742,0.0722,0.0091
10717,-1.1803,-9.7348,0.2274,-0.2534,0.0671,0.0064
10724,-1.2306,-9.7396,0.1676,-0.2380,0.0650,0.0061
10732,-1.2115,-9.7540,0.2897,-0.2198,0.0626,0.0069
10740,-1.2570,-9.7683,0.1628,-0.1996,0.0584,0.0024
10748,-1.2091,-9.6917,0.2418,-0.1804,0.0533,0.0040
10757,-1.2306,-9.7013,0.2777,-0.1620,0.0546,0.0005
10765,-1.2282,-9.6534,0.1844,-0.1399,0.0506,-0.0003
10772,-1.2713,-9.7157,0.2658,-0.1180,0.0464,-0.0029
10780,-1.2234,-9.7205,0.2658,-0.0975,0.0424,-0.0027
10788,-1.2067,-9.6678,0.3232,-0.0765,0.0357,-0.0045
10797,-1.1732,-9.5984,0.1484,-0.0549,0.0309,-0.0072
10805,-1.2378,-9.7300,0.2418,-0.0381,0.0285,-0.0069
10812,-1.2067,-9.6869,0.2083,-0.0136,0.0253,-0.0075
10820,-1.2019,-9.6654,0.2873,0.0088,0.0168,-0.0107
10828,-1.2139,-9.6462,0.2035,0.0296,0.0149,-0.0120
10836,-1.1875,-9.6869,0.2466,0.0536,0.0061,-0.0117
10845,-1.1875,-9.6989,0.2179,0.0703,0.0056,-0.0123
10852,-1.2617,-9.6367,0.2179,0.0917,-0.0016,-0.0123
10860,-1.2210,-9.6414,0.2322,0.1132,-0.0101,-0.0152
10868,-1.1708,-9.6558,0.1245,0.1306,-0.0141,-0.0128
10876,-1.1732,-9.6750,0.2658,0.1503,-0.0224,-0.0141
10885,-1.2234,-9.6534,0.1628,0.1673,-0.0280,-0.0192
10893,-1.2258,-9.7444,0.1508,0.1849,-0.0272,-0.0168
10900,-1.2665,-9.6630,0.2442,0.2028,-0.0354,-0.0189
10908,-1.2163,-9.6822,0.1700,0.2206,-0.0453,-0.0195
10916,-1.2019,-9.7157,0.2394,0.2390,-0.0525,-0.0165
10925,-1.2139,-9.7420,0.2059,0.2579,-0.0570,-0.0213
10933,-1.2426,-9.7444,0.2346,0.2710,-0.0632,-0.0229
10940,-1.2546,-9.7827,0.2562,0.2883,-0.0677,-0.0229
10948,-1.2953,-9.7588,0.1604,0.3054,-0.0743,-0.0234
10956,-1.2522,-9.8210,0.2370,0.3232,-0.0807,-0.0253
10964,-1.2163,-9.7923,0.1844,0.3432,-0.0874,-0.0282
10973,-1.1708,-9.8138,0.1030,0.3555,-0.0919,-0.0248
10981,-1.2713,-9.7875,0.2131,0.3722,-0.0967,-0.0258
10988,-1.2761,-9.8593,0.2251,0.3896,-0.1007,-0.0234
10996,-1.2617,-9.8976,0.1628,0.4088,-0.1050,-0.0274
11004,-1.2498,-9.8761,0.2083,0.4213,-0.1135,-0.0290
11013,-1.2594,-9.9240,0.1844,0.4362,-0.1138,-0.0272
11021,-1.1851,-9.9264,0.2203,0.4482,-0.1210,-0.0314
11028,-1.2426,-9.8976,0.1796,0.4628,-0.1220,-0.0272
11036,-1.2977,-9.9359,0.1939,0.4762,-0.1274,-0.0282
11044,-1.3336,-9.9216,0.1317,0.4855,-0.1316,-0.0277
11053,-1.2450,-9.9671,0.1700,0.4994,-0.1319,-0.0264
11061,-1.2594,-10.0006,0.2059,0.5111,-0.1316,-0.0282
11069,-1.2929,-9.9479,0.0742,0.5201,-0.1367,-0.0293
11076,-1.2929,-10.0461,0.1365,0.5295,-0.1383,-0.0293
11084,-1.3072,-10.0317,0.2251,0.5441,-0.1404,-0.0280
11092,-1.2234,-10.0317,0.1389,0.5548,-0.1420,-0.0285
11101,-1.3096,-10.0533,0.1652,0.5630,-0.1423,-0.0298
11109,-1.2809,-10.0844,0.1125,0.5748,-0.1420,-0.0277
11116,-1.3431,-10.1299,0.1844,0.5852,-0.1431,-0.0288
11124,-1.3096,-10.0963,0.2035,0.5974,-0.1428,-0.0272
11132,-1.3216,-10.1514,0.1197,0.6075,-0.1434,-0.0298
11141,-1.3264,-10.1562,0.1987,0.6126,-0.1442,-0.0261
11149,-1.2809,-10.1466,0.1772,0.6227,-0.1450,-0.0277
11157,-1.2905,-10.1538,0.1915,0.6265,-0.1420,-0.0309
11164,-1.3384,-10.1754,0.0670,0.6331,-0.1442,-0.0309
11172,-1.2905,-10.1873,0.0646,0.6387,-0.1439,-0.0306
11181,-1.2594,-10.2089,0.1580,0.6491,-0.1394,-0.0266
11189,-1.3240,-10.2352,0.1389,0.6544,-0.1452,-0.0280
11197,-1.3288,-10.2041,0.0814,0.6568,-0.1388,-0.0290
11204,-1.3072,-10.2759,0.0958,0.6662,-0.1396,-0.0264
11212,-1.3048,-10.2951,0.1317,0.6704,-0.1359,-0.0293
11220,-1.3216,-10.2280,0.1532,0.6728,-0.1364,-0.0290
11229,-1.2857,-10.3214,0.1101,0.6789,-0.1388,-0.0288
11237,-1.3001,-10.2951,0.1006,0.6816,-0.1372,-0.0280
11245,-1.3360,-10.3046,0.1053,0.6824,-0.1348,-0.0301
11252,-1.3216,-10.2472,0.1437,0.6875,-0.1327,-0.0282
11260,-1.2641,-10.2951,0.0192,0.6907,-0.1319,-0.0264
11269,-1.3048,-10.2831,0.0527,0.6933,-0.1335,-0.0274
11277,-1.2905,-10.2927,0.0766,0.6968,-0.1316,-0.0264
11285,-1.3096,-10.3070,0.1125,0.6941,-0.1290,-0.0253
11292,-1.2737,-10.3166,0.1556,0.6960,-0.1276,-0.0248
11300,-1.3096,-10.2855,0.1508,0.6965,-0.1306,-0.0242
11309,-1.2833,-10.2328,0.0718,0.6939,-0.1274,-0.0234
11317,-1.3001,-10.2639,0.0646,0.6912,-0.1258,-0.0242
11325,-1.3024,-10.2903,0.0096,0.6912,-0.1266,-0.0184
11333,-1.3312,-10.2592,0.1269,0.6891,-0.1287,-0.0218
11340,-1.3575,-10.2879,0.0503,0.6837,-0.1250,-0.0152
11348,-1.3024,-10.2472,0.1006,0.6800,-0.1242,-0.0149
11357,-1.3408,-10.2639,0.0527,0.6760,-0.1220,-0.0128
11365,-1.2977,-10.2807,0.0838,0.6728,-0.1287,-0.0128
11373,-1.3671,-10.2137,0.0024,0.6662,-0.1274,-0.0117
11380,-1.3479,-10.2376,0.1101,0.6603,-0.1252,-0.0104
11388,-1.2953,-10.2089,0.0479,0.6542,-0.1226,-0.0064
11397,-1.3479,-10.1825,0.0670,0.6499,-0.1234,-0.0051
11405,-1.2977,-10.1897,0.1077,0.6454,-0.1250,-0.0056
11413,-1.3048,-10.2185,0.0000,0.6387,-0.1204,-0.0035
11421,-1.3575,-10.1825,0.0622,0.6270,-0.1215,-0.0019
11428,-1.3336,-10.1873,0.0551,0.6182,-0.1204,0.0005
11437,-1.3192,-10.1873,0.0311,0.6102,-0.1191,0.0000
11445,-1.2617,-10.1155,0.0527,0.6019,-0.1183,0.0011
11453,-1.3168,-10.1394,0.0215,0.5899,-0.1196,0.0011
11461,-1.2282,-10.1897,-0.0024,0.5812,-0.1188,0.0027
11468,-1.3527,-10.1442,0.1437,0.5718,-0.1154,0.0091
11476,-1.3192,-10.0963,0.0144,0.5593,-0.1175,0.0061
11485,-1.2665,-10.0221,0.0096,0.5476,-0.1178,0.0099
11493,-1.3096,-10.0796,0.0455,0.5393,-0.1159,0.0117
11501,-1.3384,-10.0580,0.0215,0.5263,-0.1132,0.0131
11508,-1.2905,-10.0269,0.1006,0.5145,-0.1122,0.0147
11516,-1.2953,-10.0485,0.0455,0.5015,-0.1082,0.0179
11525,-1.2402,-9.9790,0.0407,0.4919,-0.1071,0.0184
11533,-1.2354,-9.9120,0.0263,0.4770,-0.1079,0.0165
11541,-1.2761,-9.9503,0.0263,0.4652,-0.1071,0.0189
11549,-1.2354,-9.9264,0.0431,0.4498,-0.1069,0.0224
11556,-1.2689,-9.9288,0.0431,0.4389,-0.1039,0.0208
11565,-1.2953,-9.9048,-0.0215,0.4239,-0.1061,0.0216
11573,-1.2689,-9.9192,0.0335,0.4085,-0.1002,0.0264
11581,-1.2139,-9.9144,0.0622,0.3954,-0.0991,0.0245
11589,-1.3001,-9.8904,0.0838,0.3808,-0.0986,0.0314
11596,-1.3120,-9.8378,0.0072,0.3632,-0.0970,0.0304
11604,-1.2570,-9.9120,-0.0287,0.3483,-0.0874,0.0330
11613,-1.3120,-9.8426,-0.0096,0.3315,-0.0869,0.0336
11621,-1.2498,-9.8138,0.0311,0.3184,-0.0869,0.0365
11629,-1.2617,-9.7899,0.0599,0.3006,-0.0837,0.0386
11637,-1.2258,-9.7851,-0.0599,0.2878,-0.0802,0.0386
11644,-1.2953,-9.7779,0.0431,0.2683,-0.0762,0.0418
11653,-1.2737,-9.7803,-0.0192,0.2553,-0.0746,0.0429
11661,-1.2522,-9.7205,-0.0886,0.2414,-0.0677,0.0434
11669,-1.2402,-9.6798,0.0862,0.2230,-0.0701,0.0482
11677,-1.2713,-9.7659,-0.0263,0.2084,-0.0610,0.0482
11684,-1.2210,-9.7085,-0.0527,0.1903,-0.0589,0.0520
11693,-1.2737,-9.7803,0.0024,0.1769,-0.0541,0.0514
11701,-1.2282,-9.6630,0.0215,0.1599,-0.0517,0.0538
11709,-1.2378,-9.7085,0.0383,0.1444,-0.0493,0.0528
11717,-1.2067,-9.7372,-0.0168,0.1223,-0.0418,0.0522
11725,-1.2115,-9.7061,-0.0096,0.1079,-0.0386,0.0605
11732,-1.2617,-9.6798,-0.0551,0.0882,-0.0341,0.0613
11741,-1.2306,-9.6774,0.0718,0.0711,-0.0277,0.0653
11749,-1.1851,-9.6510,-0.0192,0.0560,-0.0264,0.0650
11757,-1.1923,-9.7061,-0.0192,0.0330,-0.0155,0.0642
11765,-1.1899,-9.6630,-0.0096,0.0173,-0.0115,0.0682
11772,-1.2330,-9.6606,0.0551,-0.0008,-0.0096,0.0730
11781,-1.2426,-9.6630,-0.0048,-0.0157,-0.0053,0.0711
11789,-1.1803,-9.6391,0.0575,-0.0368,0.0000,0.0719
11797,-1.1923,-9.7085,-0.0694,-0.0533,0.0053,0.0751
11805,-1.2498,-9.7085,0.0072,-0.0714,0.0096,0.0797
11813,-1.2665,-9.6965,0.0096,-0.0866,0.0147,0.0786
11821,-1.2186,-9.6391,0.0503,-0.1055,0.0213,0.0791
11829,-1.2139,-9.6774,0.0910,-0.1255,0.0242,0.0791
11837,-1.2498,-9.7348,0.0934,-0.1444,0.0282,0.0823
11845,-1.2570,-9.7229,0.0455,-0.1633,0.0346,0.0818
11853,-1.2139,-9.7300,0.0359,-0.1801,0.0397,0.0839
11860,-1.2785,-9.7252,0.0120,-0.1982,0.0432,0.0855
11869,-1.2833,-9.7420,0.0599,-0.2156,0.0488,0.0853
11877,-1.2450,-9.7612,0.0790,-0.2366,0.0501,0.0882
11885,-1.2091,-9.8114,0.0479,-0.2529,0.0573,0.0911
11893,-1.2498,-9.7947,0.0359,-0.2702,0.0594,0.0933
11901,-1.2833,-9.7755,0.0168,-0.2870,0.0648,0.0949
11909,-1.2665,-9.8043,0.0575,-0.3075,0.0690,0.0935
11917,-1.2809,-9.7971,0.0575,-0.3248,0.0730,0.0970
11925,-1.2546,-9.7995,0.1197,-0.3400,0.0775,0.0941
11933,-1.2354,-9.8234,0.0862,-0.3565,0.0850,0.0941
11941,-1.2186,-9.8426,0.0503,-0.3683,0.0877,0.0978
11949,-1.2282,-9.8904,0.0287,-0.3850,0.0975,0.0946
11957,-1.2713,-9.8713,-0.0024,-0.4032,0.0954,0.0930
11965,-1.2594,-9.8593,0.0359,-0.4135,0.1037,0.0949
11973,-1.2761,-9.8569,0.1125,-0.4285,0.1085,0.0935
11981,-1.2258,-9.9479,0.0335,-0.4373,0.1132,0.0925
11990,-1.2881,-9.8904,0.0335,-0.4479,0.1175,0.0954
11997,-1.2761,-9.9886,0.1149,-0.4580,0.1244,0.0933
12005,-1.2689,-9.9647,0.0263,-0.4735,0.1276,0.0951
12013,-1.2163,-10.0054,0.1796,-0.4740,0.1300,0.0919
12021,-1.2737,-9.9790,0.0431,-0.4866,0.1386,0.0935
12029,-1.3336,-10.0413,0.0814,-0.4962,0.1378,0.0914
12037,-1.3001,-10.0772,0.1460,-0.5052,0.1396,0.0938
12045,-1.2474,-10.0652,0.1173,-0.5095,0.1436,0.0893
12053,-1.3072,-10.0173,0.0120,-0.5183,0.1463,0.0906
12061,-1.3001,-10.0221,0.0742,-0.5281,0.1482,0.0895
12069,-1.2665,-10.0485,0.1676,-0.5351,0.1500,0.0938
12077,-1.3288,-10.1299,0.0000,-0.5404,0.1543,0.0906
12085,-1.3264,-10.0868,0.0599,-0.5502,0.1535,0.0898
12093,-1.2402,-10.0772,0.1293,-0.5556,0.1540,0.0877
12101,-1.2570,-10.1227,0.0335,-0.5628,0.1553,0.0890
12109,-1.2809,-10.1347,0.2251,-0.5708,0.1532,0.0895
12118,-1.3024,-10.1155,0.1580,-0.5769,0.1564,0.0879
12125,-1.3072,-10.2256,0.1365,-0.5857,0.1506,0.0887
12133,-1.3001,-10.1634,0.1604,-0.5921,0.1506,0.0890
12141,-1.2953,-10.1825,0.1676,-0.5982,0.1482,0.0882
12149,-1.2953,-10.1562,0.2179,-0.6030,0.1506,0.0877
12157,-1.3384,-10.2089,0.0886,-0.6126,0.1476,0.0858
12165,-1.2905,-10.2232,0.1508,-0.6185,0.1487,0.0853
12173,-1.3240,-10.2256,0.1963,-0.6219,0.1431,0.0839
12181,-1.3120,-10.1993,0.1987,-0.6305,0.1434,0.0845
12189,-1.3048,-10.1754,0.1293,-0.6360,0.1356,0.0850
12197,-1.3024,-10.2376,0.1293,-0.6446,0.1410,0.0831
12206,-1.3264,-10.2448,0.1341,-0.6456,0.1311,0.0815
12213,-1.3312,-10.2304,0.1245,-0.6550,0.1359,0.0786
12221,-1.3001,-10.2328,0.0886,-0.6566,0.1242,0.0802
12229,-1.2498,-10.2615,0.1700,-0.6614,0.1255,0.0802
12237,-1.3048,-10.2831,0.2203,-0.6646,0.1231,0.0751
12246,-1.3120,-10.1969,0.2131,-0.6664,0.1212,0.0746
12253,-1.3192,-10.2711,0.1963,-0.6643,0.1204,0.0757
12261,-1.3551,-10.3070,0.1891,-0.6635,0.1154,0.0738
12269,-1.2881,-10.2352,0.1963,-0.6656,0.1116,0.0725
12277,-1.3001,-10.2807,0.1748,-0.6630,0.1087,0.0738
12285,-1.2833,-10.2592,0.1748,-0.6640,0.1050,0.0701
12294,-1.3312,-10.3190,0.1915,-0.6606,0.1053,0.0701
12301,-1.3144,-10.2304,0.1987,-0.6584,0.1050,0.0671
12309,-1.3431,-10.2544,0.2729,-0.6547,0.1023,0.0669
12317,-1.2857,-10.2472,0.1844,-0.6464,0.0957,0.0632
12325,-1.2761,-10.1945,0.2658,-0.6430,0.0962,0.0634
12334,-1.2713,-10.1969,0.1820,-0.6379,0.0938,0.0600
12341,-1.2641,-10.1730,0.1628,-0.6281,0.0914,0.0581
12349,-1.3288,-10.1873,0.2466,-0.6246,0.0949,0.0570
12357,-1.2929,-10.1490,0.1987,-0.6179,0.0901,0.0554
12365,-1.2809,-10.1658,0.2107,-0.6049,0.0871,0.0552
12374,-1.2282,-10.1083,0.2658,-0.5966,0.0893,0.0493
12382,-1.2594,-10.1514,0.2682,-0.5881,0.0863,0.0474
12389,-1.2713,-10.1227,0.1269,-0.5801,0.0855,0.0490
12397,-1.3072,-10.0724,0.2466,-0.5718,0.0855,0.0474
12405,-1.2474,-10.0485,0.2131,-0.5590,0.0874,0.0464
12413,-1.3024,-10.0963,0.2322,-0.5518,0.0837,0.0464
12422,-1.2641,-10.0892,0.2682,-0.5375,0.0887,0.0413
12429,-1.3192,-10.0293,0.2729,-0.5305,0.0818,0.0426
12437,-1.2809,-10.0604,0.1748,-0.5199,0.0839,0.0410
12445,-1.2977,-10.0437,0.0934,-0.5076,0.0813,0.0370
12453,-1.2785,-10.0413,0.2059,-0.4970,0.0802,0.0357
12462,-1.2354,-10.0245,0.1245,-0.4828,0.0821,0.0370
12470,-1.2689,-10.0245,0.1437,-0.4764,0.0831,0.0376
12477,-1.2474,-9.9479,0.2107,-0.4631,0.0813,0.0336
12485,-1.3096,-9.9695,0.1652,-0.4511,0.0805,0.0349
12493,-1.2570,-9.9695,0.2562,-0.4413,0.0791,0.0325
12502,-1.2713,-9.9120,0.2490,-0.4290,0.0783,0.0312
12510,-1.2809,-9.9024,0.1796,-0.4181,0.0821,0.0309
12517,-1.2833,-9.8952,0.2251,-0.4072,0.0786,0.0293
12525,-1.2354,-9.8809,0.2705,-0.3960,0.0767,0.0248
12533,-1.3024,-9.9359,0.3376,-0.3818,0.0773,0.0245
12541,-1.2737,-9.8857,0.1293,-0.3696,0.0770,0.0205
12550,-1.2498,-9.8904,0.1772,-0.3557,0.0762,0.0208
12558,-1.2474,-9.9096,0.2897,-0.3424,0.0738,0.0192
12565,-1.2210,-9.8641,0.2490,-0.3254,0.0762,0.0197
12573,-1.2378,-9.8354,0.2682,-0.3104,0.0762,0.0152
12581,-1.2210,-9.8114,0.2514,-0.2971,0.0746,0.0133
12590,-1.2953,-9.7851,0.1437,-0.2814,0.0719,0.0101
12598,-1.2378,-9.7755,0.1867,-0.2681,0.0695,0.0091
12605,-1.2306,-9.7516,0.1604,-0.2534,0.0685,0.0099
12613,-1.2594,-9.7707,0.1700,-0.2348,0.0632,0.0069
12621,-1.2163,-9.7420,0.2897,-0.2180,0.0666,0.0061
12630,-1.2091,-9.7348,0.2107,-0.1972,0.0626,0.0008
12638,-1.2474,-9.7516,0.1963,-0.1815,0.0613,0.0027
12646,-1.1851,-9.7229,0.2442,-0.1633,0.0568,-0.0008
12653,-1.2522,-9.7444,0.2179,-0.1455,0.0568,-0.0019
12661,-1.2282,-9.6630,0.2179,-0.1263,0.0514,-0.0048
12669,-1.2163,-9.7420,0.2466,-0.1090,0.0469,-0.0048
12678,-1.2043,-9.6989,0.2610,-0.0906,0.0450,-0.0053
12686,-1.2330,-9.7133,0.1987,-0.0690,0.0416,-0.0120
12693,-1.2450,-9.6893,0.1221,-0.0520,0.0336,-0.0104
12701,-1.2354,-9.6893,0.2753,-0.0344,0.0338,-0.0131
12709,-1.1899,-9.7013,0.2394,-0.0136,0.0224,-0.0120
12718,-1.2617,-9.7612,0.2945,0.0056,0.0200,-0.0160
12726,-1.2426,-9.7324,0.1844,0.0226,0.0163,-0.0141
12733,-1.2689,-9.6989,0.2682,0.0434,0.0128,-0.0163
12741,-1.2091,-9.7109,0.2035,0.0618,0.0048,-0.0168
12749,-1.2450,-9.6774,0.1796,0.0821,-0.0005,-0.0192
12758,-1.2378,-9.7444,0.1748,0.0986,-0.0024,-0.0187
12766,-1.2067,-9.6702,0.2490,0.1175,-0.0123,-0.0163
12774,-1.2426,-9.7324,0.1269,0.1327,-0.0203,-0.0173
12781,-1.2665,-9.6630,0.1700,0.1463,-0.0240,-0.0192
12789,-1.2330,-9.7540,0.2131,0.1703,-0.0282,-0.0237
12797,-1.2163,-9.6965,0.2035,0.1809,-0.0397,-0.0200
12806,-1.2474,-9.7205,0.2059,0.2006,-0.0418,-0.0221
12814,-1.2282,-9.7133,0.0958,0.2148,-0.0520,-0.0213
12821,-1.2402,-9.7396,0.2370,0.2289,-0.0576,-0.0248
12829,-1.2378,-9.7348,0.2179,0.2446,-0.0608,-0.0240
12837,-1.2570,-9.7372,0.2370,0.2587,-0.0674,-0.0240
12846,-1.2594,-9.7995,0.1269,0.2753,-0.0759,-0.0245
12854,-1.2594,-9.7851,0.2251,0.2942,-0.0802,-0.0256
12862,-1.2498,-9.8138,0.2107,0.3096,-0.0842,-0.0237
12869,-1.2019,-9.8186,0.1700,0.3235,-0.0938,-0.0266
12877,-1.2378,-9.8210,0.1820,0.3381,-0.1010,-0.0264
12886,-1.2857,-9.8019,0.1365,0.3533,-0.1010,-0.0242
12894,-1.2570,-9.8569,0.2418,0.3714,-0.1082,-0.0288
12902,-1.2354,-9.9359,0.0934,0.3842,-0.1140,-0.0240
12909,-1.2665,-9.8402,0.1006,0.3936,-0.1151,-0.0272
12917,-1.2809,-9.8761,0.1987,0.4066,-0.1194,-0.0296
12925,-1.1995,-9.9048,0.1724,0.4194,-0.1231,-0.0232
12934,-1.2354,-9.9024,0.2658,0.4330,-0.1284,-0.0261
12942,-1.2713,-9.9407,0.1197,0.4442,-0.1290,-0.0264
12950,-1.2402,-9.9335,0.2203,0.4538,-0.1279,-0.0256
12957,-1.3192,-10.0102,0.1293,0.4679,-0.1287,-0.0266
12965,-1.2713,-10.0173,0.1460,0.4772,-0.1300,-0.0250
12974,-1.2330,-10.0102,0.0862,0.4844,-0.1311,-0.0288
12982,-1.3024,-10.0509,0.2083,0.4983,-0.1316,-0.0274
12990,-1.2067,-10.0054,0.1844,0.5076,-0.1308,-0.0269
12997,-1.2929,-10.0485,0.1365,0.5180,-0.1306,-0.0282
13005,-1.2833,-10.0509,0.2203,0.5284,-0.1274,-0.0277
13014,-1.2617,-10.0556,0.1724,0.5343,-0.1255,-0.0277
13022,-1.3048,-10.0676,0.1987,0.5425,-0.1279,-0.0280
13030,-1.2737,-10.0485,0.1389,0.5532,-0.1247,-0.0293
13038,-1.3120,-10.0604,0.1006,0.5612,-0.1260,-0.0285
13045,-1.2689,-10.1155,0.1293,0.5697,-0.1258,-0.0266
13053,-1.3072,-10.1131,0.1532,0.5788,-0.1255,-0.0274
13062,-1.2641,-10.1610,0.0455,0.5809,-0.1194,-0.0288
13070,-1.3168,-10.1801,0.0718,0.5868,-0.1212,-0.0277
13078,-1.3431,-10.1466,0.2035,0.5918,-0.1199,-0.0288
13085,-1.3240,-10.1801,0.0622,0.5998,-0.1199,-0.0301
13093,-1.3695,-10.1490,0.0455,0.6035,-0.1188,-0.0272
13102,-1.2737,-10.1418,0.0503,0.6081,-0.1188,-0.0258
13110,-1.3240,-10.1969,0.1077,0.6150,-0.1124,-0.0256
13118,-1.3072,-10.2161,0.1365,0.6190,-0.1148,-0.0258
13126,-1.3408,-10.1801,0.1221,0.6201,-0.1143,-0.0245
13133,-1.3503,-10.2065,0.1437,0.6281,-0.1159,-0.0224
13142,-1.2881,-10.2041,0.1173,0.6286,-0.1148,-0.0237
13150,-1.3192,-10.1801,0.1437,0.6318,-0.1119,-0.0264
13158,-1.2713,-10.2161,0.1437,0.6339,-0.1140,-0.0221
13166,-1.3408,-10.1849,0.0934,0.6384,-0.1156,-0.0216
13173,-1.3192,-10.2137,0.0790,0.6408,-0.1132,-0.0216
13181,-1.2785,-10.2137,-0.0120,0.6398,-0.1124,-0.0208
13190,-1.3096,-10.1754,0.0910,0.6395,-0.1087,-0.0171
13198,-1.2498,-10.2735,0.1197,0.6430,-0.1114,-0.0168
13206,-1.2881,-10.1825,0.1269,0.6360,-0.1114,-0.0155
13214,-1.3072,-10.1801,0.0670,0.6382,-0.1130,-0.0136
13221,-1.3216,-10.2089,-0.0024,0.6350,-0.1106,-0.0128
13230,-1.2737,-10.1825,0.0287,0.6342,-0.1111,-0.0152
13238,-1.2594,-10.2280,0.1101,0.6310,-0.1127,-0.0101
13246,-1.3479,-10.2089,0.1030,0.6233,-0.1114,-0.0088
13254,-1.3503,-10.2017,0.1269,0.6243,-0.1108,-0.0101
13261,-1.3862,-10.1969,0.1221,0.6155,-0.1146,-0.0077
13270,-1.2881,-10.1801,0.0622,0.6137,-0.1138,-0.0069
13278,-1.2977,-10.2017,0.1556,0.6073,-0.1122,-0.0043
13286,-1.3551,-10.1562,0.0239,0.6059,-0.1135,-0.0011
13294,-1.3168,-10.1347,0.0910,0.5955,-0.1140,-0.0024
13302,-1.3192,-10.1730,0.1269,0.5939,-0.1170,-0.0011
13309,-1.3096,-10.1466,0.0239,0.5828,-0.1146,0.0019
13318,-1.3575,-10.1251,0.0527,0.5766,-0.1127,0.0019
13326,-1.2330,-10.1825,0.0646,0.5657,-0.1135,0.0067
13334,-1.2977,-10.1347,0.0718,0.5612,-0.1154,0.0059
13342,-1.2977,-10.0652,0.0694,0.5540,-0.1148,0.0077
13349,-1.2761,-10.0365,-0.0263,0.5399,-0.1108,0.0059
13358,-1.2522,-10.1562,0.0694,0.5337,-0.1146,0.0080
13366,-1.3072,-10.0628,0.0551,0.5223,-0.1148,0.0109
13374,-1.2258,-10.0030,0.0192,0.5140,-0.1111,0.0120
13382,-1.2641,-9.9982,0.0766,0.5065,-0.1135,0.0147
13390,-1.3001,-9.9910,0.1413,0.4940,-0.1058,0.0163
13398,-1.3503,-10.0126,-0.0096,0.4823,-0.1095,0.0187
13406,-1.2498,-10.0413,0.0886,0.4698,-0.1069,0.0203
13414,-1.2617,-9.9838,0.0718,0.4594,-0.1071,0.0213
13422,-1.2474,-9.9551,0.0192,0.4501,-0.1047,0.0216
13430,-1.2594,-9.9479,0.0359,0.4386,-0.1005,0.0218
13437,-1.2378,-9.9623,0.0862,0.4253,-0.0999,0.0264
13446,-1.2617,-9.9407,0.0527,0.4128,-0.1015,0.0296
13454,-1.2809,-9.9671,0.1173,0.4024,-0.1018,0.0264
13462,-1.3192,-9.9168,0.0838,0.3933,-0.0989,0.0320
13470,-1.3312,-9.8881,0.0287,0.3776,-0.0967,0.0314
13477,-1.3024,-9.8737,0.0263,0.3643,-0.0949,0.0349
13486,-1.2474,-9.8426,0.0168,0.3501,-0.0946,0.0378
13494,-1.2546,-9.8809,0.0407,0.3357,-0.0882,0.0400
13502,-1.2498,-9.8090,-0.0120,0.3240,-0.0842,0.0408
13510,-1.2761,-9.8306,0.0168,0.3112,-0.0813,0.0408
13518,-1.2210,-9.8569,-0.0024,0.2912,-0.0802,0.0458
13526,-1.2210,-9.7707,-0.0168,0.2819,-0.0770,0.0469
13534,-1.2402,-9.8186,-0.0503,0.2641,-0.0719,0.0450
13542,-1.2306,-9.7851,-0.0168,0.2507,-0.0661,0.0504
13550,-1.2354,-9.7779,-0.0096,0.2340,-0.0661,0.0512
13558,-1.2761,-9.7683,-0.0527,0.2233,-0.0581,0.0496
13565,-1.2522,-9.7707,0.0383,0.2073,-0.0557,0.0541
13574,-1.2498,-9.7205,-0.0215,0.1921,-0.0498,0.0533
13582,-1.2737,-9.7588,0.0910,0.1743,-0.0472,0.0578
13590,-1.2378,-9.6965,0.0838,0.1628,-0.0448,0.0584
13598,-1.2617,-9.6989,0.0096,0.1479,-0.0397,0.0581
13606,-1.2977,-9.7324,0.0670,0.1348,-0.0354,0.0586
13614,-1.2785,-9.6774,0.0742,0.1167,-0.0322,0.0618
13622,-1.2282,-9.7540,0.0000,0.0989,-0.0288,0.0618
13630,-1.1420,-9.7324,-0.0120,0.0850,-0.0216,0.0634
13638,-1.2186,-9.6893,0.0311,0.0653,-0.0200,0.0618
13646,-1.2761,-9.7348,-0.0024,0.0482,-0.0149,0.0655
13654,-1.2402,-9.7205,0.0024,0.0344,-0.0115,0.0679
13662,-1.1995,-9.6750,0.0120,0.0176,-0.0048,0.0706
13670,-1.2474,-9.6558,-0.0144,0.0029,-0.0011,0.0706
13678,-1.2091,-9.7037,-0.0838,-0.0160,0.0000,0.0719
13686,-1.2450,-9.6558,0.0575,-0.0330,0.0080,0.0751
13694,-1.2330,-9.7516,-0.0527,-0.0477,0.0099,0.0770
13702,-1.2713,-9.6965,-0.0982,-0.0645,0.0197,0.0791
13710,-1.2833,-9.7420,0.0742,-0.0799,0.0195,0.0778
13718,-1.2737,-9.7205,0.0766,-0.0967,0.0216,0.0810
13726,-1.3072,-9.7276,0.0455,-0.1140,0.0269,0.0810
13734,-1.2402,-9.6822,-0.0024,-0.1322,0.0317,0.0831
13742,-1.2258,-9.6989,0.0958,-0.1476,0.0378,0.0866
13750,-1.2043,-9.7516,-0.0431,-0.1633,0.0370,0.0885
13758,-1.2282,-9.7588,0.0431,-0.1804,0.0421,0.0879
13766,-1.2713,-9.6774,-0.0192,-0.1956,0.0466,0.0895
13774,-1.2617,-9.8019,0.0838,-0.2145,0.0496,0.0917
13783,-1.2522,-9.8162,0.0024,-0.2276,0.0549,0.0922
13790,-1.2378,-9.8066,0.0670,-0.2459,0.0584,0.0930
13798,-1.2713,-9.7612,0.1149,-0.2646,0.0642,0.0967
13806,-1.3072,-9.7444,0.0120,-0.2819,0.0695,0.0957
13814,-1.2115,-9.8450,0.1006,-0.2963,0.0719,0.0949
13822,-1.2905,-9.8593,-0.0024,-0.3083,0.0709,0.0946
13830,-1.2594,-9.7803,0.0646,-0.3235,0.0778,0.0957
13838,-1.2857,-9.8521,0.0503,-0.3376,0.0853,0.0962
13846,-1.2067,-9.8497,0.1197,-0.3523,0.0906,0.0946
13854,-1.3024,-9.8641,0.0503,-0.3664,0.0903,0.0959
13862,-1.2546,-9.9192,0.0455,-0.3805,0.0975,0.0943
13871,-1.2809,-9.8282,0.0742,-0.3946,0.1005,0.0925
13878,-1.2234,-9.9383,0.0814,-0.4021,0.1042,0.0914
13886,-1.2617,-9.9503,0.0622,-0.4117,0.1095,0.0898
13894,-1.3048,-9.9144,-0.0215,-0.4245,0.1085,0.0917
13902,-1.2258,-9.8952,0.1125,-0.4306,0.1138,0.0906
13911,-1.2378,-9.9623,0.1149,-0.4399,0.1164,0.0925
13918,-1.3048,-9.9958,0.1484,-0.4498,0.1164,0.0898
13926,-1.3001,-9.9862,0.0599,-0.4572,0.1199,0.0895
13934,-1.2498,-9.9934,0.1125,-0.4642,0.1236,0.0901
13942,-1.2929,-9.9958,0.0766,-0.4732,0.1263,0.0863
13950,-1.3024,-10.0389,0.1460,-0.4778,0.1239,0.0874
13959,-1.3264,-10.0628,0.0263,-0.4860,0.1252,0.0871
13966,-1.2474,-10.0580,0.0862,-0.4946,0.1274,0.0887
13974,-1.2689,-10.0437,0.0670,-0.5009,0.1252,0.0853
13982,-1.2905,-10.0533,0.1460,-0.5039,0.1279,0.0866
13990,-1.3312,-10.0772,0.1580,-0.5121,0.1271,0.0842
13999,-1.2737,-10.0916,0.1341,-0.5199,0.1284,0.0837
14006,-1.3408,-10.1323,0.1484,-0.5268,0.1250,0.0815
14014,-1.2809,-10.1155,0.1652,-0.5321,0.1287,0.0831
14022,-1.2905,-10.0748,0.1628,-0.5372,0.1276,0.0850
14030,-1.2833,-10.1179,0.1317,-0.5425,0.1263,0.0853
14039,-1.3216,-10.1418,0.1628,-0.5500,0.1247,0.0805
14047,-1.2761,-10.1394,0.0862,-0.5582,0.1258,0.0845
14054,-1.2953,-10.1227,0.1796,-0.5657,0.1223,0.0826
14062,-1.2905,-10.1778,0.2370,-0.5724,0.1231,0.0837
14070,-1.2474,-10.1658,0.1508,-0.5753,0.1231,0.0805
14078,-1.3288,-10.2520,0.1006,-0.5833,0.1194,0.0821
14087,-1.3192,-10.1490,0.0934,-0.5841,0.1186,0.0823
14094,-1.3048,-10.2400,0.1173,-0.5905,0.1167,0.0831
14102,-1.2522,-10.1706,0.1269,-0.5953,0.1140,0.0799
14110,-1.2234,-10.1299,0.1125,-0.6003,0.1151,0.0813
14118,-1.3503,-10.1873,0.1197,-0.6030,0.1130,0.0778
14127,-1.3288,-10.1730,0.1269,-0.6057,0.1085,0.0759
14135,-1.2426,-10.1945,0.1221,-0.6078,0.1077,0.0733
14142,-1.2833,-10.1562,0.2107,-0.6102,0.1114,0.0767
14150,-1.2857,-10.2089,0.1628,-0.6115,0.1063,0.0730
14158,-1.2905,-10.1394,0.2370,-0.6121,0.1053,0.0706
14167,-1.2641,-10.2256,0.1820,-0.6110,0.1018,0.0677
14175,-1.3048,-10.1801,0.2466,-0.6083,0.1029,0.0666
14182,-1.2546,-10.1658,0.1293,-0.6097,0.1021,0.0653
14190,-1.2881,-10.1658,0.1556,-0.6035,0.1023,0.0634
14198,-1.2761,-10.1730,0.2131,-0.6041,0.1013,0.0613
14206,-1.3120,-10.1921,0.1508,-0.5974,0.1031,0.0594
14215,-1.2833,-10.1849,0.1939,-0.5971,0.0997,0.0581
14222,-1.2785,-10.1706,0.2658,-0.5875,0.0938,0.0549
14230,-1.3192,-10.1610,0.1700,-0.5836,0.0946,0.0562
14238,-1.2785,-10.1347,0.1437,-0.5785,0.0965,0.0525
14246,-1.2546,-10.1442,0.1915,-0.5705,0.0981,0.0528
14255,-1.2498,-10.1107,0.2083,-0.5660,0.0981,0.0485
14263,-1.3527,-10.1035,0.1580,-0.5569,0.0901,0.0461
14270,-1.2402,-10.1538,0.1987,-0.5457,0.0909,0.0482
14278,-1.2522,-10.1299,0.2083,-0.5415,0.0914,0.0458
14286,-1.2737,-10.1251,0.2322,-0.5303,0.0887,0.0421
14295,-1.2091,-10.0604,0.1652,-0.5233,0.0887,0.0405
14303,-1.2977,-10.0844,0.1676,-0.5153,0.0895,0.0389
14310,-1.2785,-10.0604,0.2274,-0.5041,0.0869,0.0381
14318,-1.2594,-10.0844,0.2322,-0.4938,0.0855,0.0373
14326,-1.2785,-10.0509,0.2011,-0.4860,0.0861,0.0333
14334,-1.3024,-10.0365,0.2610,-0.4746,0.0869,0.0373
14343,-1.2713,-10.0437,0.1413,-0.4642,0.0834,0.0320
14351,-1.3336,-10.0149,0.1676,-0.4551,0.0805,0.0320
14358,-1.3312,-10.0126,0.2274,-0.4405,0.0815,0.0333
14366,-1.3001,-9.9766,0.2322,-0.4311,0.0799,0.0304
14374,-1.2450,-9.9623,0.1580,-0.4221,0.0786,0.0272
14383,-1.2474,-10.0102,0.1341,-0.4162,0.0802,0.0290
14391,-1.2402,-10.0102,0.1915,-0.3997,0.0765,0.0242
14398,-1.2570,-9.9120,0.1197,-0.3941,0.0746,0.0256
14406,-1.2977,-9.9359,0.2227,-0.3850,0.0735,0.0245
14414,-1.2570,-9.9168,0.2131,-0.3701,0.0695,0.0229
14423,-1.2665,-9.8641,0.2227,-0.3597,0.0703,0.0197
14431,-1.2474,-9.8833,0.2418,-0.3483,0.0687,0.0213
14439,-1.2953,-9.8426,0.1963,-0.3387,0.0666,0.0192
14446,-1.2570,-9.9024,0.2035,-0.3238,0.0695,0.0171
14454,-1.2426,-9.8282,0.2538,-0.3094,0.0637,0.0179
14462,-1.2306,-9.8497,0.2753,-0.2979,0.0650,0.0147
14471,-1.2139,-9.7875,0.2035,-0.2848,0.0634,0.0144
14479,-1.2617,-9.8354,0.2035,-0.2721,0.0600,0.0107
14486,-1.1612,-9.8282,0.2514,-0.2566,0.0568,0.0080
14494,-1.2594,-9.8282,0.2346,-0.2430,0.0560,0.0067
14502,-1.2091,-9.8426,0.2059,-0.2292,0.0533,0.0024
14511,-1.2498,-9.8210,0.1724,-0.2158,0.0538,0.0000
14519,-1.2522,-9.8234,0.2873,-0.1980,0.0485,-0.0019
14527,-1.2809,-9.7276,0.1915,-0.1844,0.0448,-0.0048
14534,-1.2498,-9.7779,0.2203,-0.1665,0.0442,-0.0048
14542,-1.2354,-9.7372,0.1939,-0.1508,0.0397,-0.0043
14551,-1.1971,-9.7181,0.2155,-0.1324,0.0397,-0.0077
14559,-1.2306,-9.7348,0.1915,-0.1175,0.0333,-0.0088
14567,-1.2450,-9.7803,0.2346,-0.1007,0.0341,-0.0109
14574,-1.2881,-9.7085,0.1556,-0.0813,0.0277,-0.0128
14582,-1.2139,-9.7205,0.1820,-0.0642,0.0211,-0.0133
14590,-1.1971,-9.6989,0.2322,-0.0472,0.0226,-0.0141
14599,-1.1947,-9.7229,0.1772,-0.0301,0.0173,-0.0147
14607,-1.2594,-9.7229,0.2203,-0.0109,0.0157,-0.0168
14615,-1.2306,-9.6917,0.2538,0.0040,0.0040,-0.0173
14622,-1.2354,-9.6965,0.2418,0.0224,0.0032,-0.0179
14630,-1.1636,-9.6558,0.3112,0.0381,-0.0011,-0.0203
14639,-1.1708,-9.7372,0.1772,0.0549,-0.0040,-0.0221
14647,-1.2354,-9.6989,0.2825,0.0693,-0.0120,-0.0184
14655,-1.2689,-9.7468,0.1508,0.0885,-0.0176,-0.0200
14662,-1.2234,-9.7420,0.1844,0.1066,-0.0216,-0.0245
14670,-1.1995,-9.7755,0.2059,0.1220,-0.0312,-0.0250
14679,-1.2378,-9.7636,0.1413,0.1396,-0.0298,-0.0216
14687,-1.1995,-9.8066,0.1844,0.1508,-0.0370,-0.0221
14695,-1.2713,-9.7683,0.1437,0.1668,-0.0421,-0.0197
14703,-1.2498,-9.7372,0.2251,0.1847,-0.0466,-0.0232
14710,-1.1899,-9.7468,0.1532,0.1977,-0.0501,-0.0245
14718,-1.2426,-9.7755,0.2322,0.2129,-0.0570,-0.0237
14727,-1.2929,-9.7612,0.1867,0.2284,-0.0594,-0.0248
14735,-1.2067,-9.7779,0.2059,0.2403,-0.0663,-0.0232
14743,-1.2426,-9.7899,0.1796,0.2571,-0.0677,-0.0274
14750,-1.2450,-9.8402,0.2274,0.2675,-0.0775,-0.0258
14758,-1.2522,-9.8162,0.1053,0.2803,-0.0770,-0.0253
14767,-1.2498,-9.7971,0.2011,0.3003,-0.0799,-0.0277
14775,-1.2402,-9.7779,0.1437,0.3136,-0.0879,-0.0269
14783,-1.2977,-9.8330,0.1413,0.3280,-0.0845,-0.0293
14791,-1.3240,-9.8737,0.1844,0.3429,-0.0917,-0.0274
14798,-1.2809,-9.8881,0.1556,0.3552,-0.0965,-0.0301
14807,-1.2450,-9.8617,0.1149,0.3653,-0.0981,-0.0280
14815,-1.2306,-9.8617,0.0934,0.3794,-0.1007,-0.0256
14823,-1.2737,-9.9144,0.2466,0.3890,-0.0994,-0.0288
14831,-1.2809,-9.8833,0.1915,0.4013,-0.1023,-0.0288
14838,-1.3216,-9.9479,0.0646,0.4112,-0.1061,-0.0272
14846,-1.2043,-9.8617,0.1460,0.4205,-0.1050,-0.0285
14855,-1.2546,-9.9479,0.1413,0.4317,-0.1047,-0.0266
14863,-1.2809,-9.9479,0.2227,0.4407,-0.1034,-0.0301
14871,-1.3312,-10.0054,0.1293,0.4477,-0.1087,-0.0264
14878,-1.3001,-10.0485,0.2179,0.4583,-0.1090,-0.0256
14886,-1.3120,-9.9886,0.1748,0.4687,-0.1116,-0.0256
14895,-1.2330,-9.9718,0.2179,0.4764,-0.1103,-0.0272
14903,-1.2953,-10.0054,0.1077,0.4831,-0.1066,-0.0282
14911,-1.2905,-10.0293,0.1245,0.4938,-0.1079,-0.0253
14919,-1.3001,-10.0317,0.1413,0.5041,-0.1074,-0.0258
14926,-1.2809,-10.1227,0.1460,0.5121,-0.1077,-0.0256
14935,-1.2785,-10.0437,0.0838,0.5140,-0.1063,-0.0266
14943,-1.3024,-10.0604,0.1077,0.5247,-0.1095,-0.0277
14951,-1.2809,-10.1011,0.0479,0.5295,-0.1085,-0.0237
14959,-1.3312,-10.0796,0.1748,0.5340,-0.1039,-0.0245
14966,-1.2761,-10.1059,0.1532,0.5438,-0.1092,-0.0229
14974,-1.2881,-10.1155,0.1197,0.5476,-0.1047,-0.0232
14983,-1.2905,-10.1059,0.1341,0.5537,-0.1074,-0.0242
14991,-1.3072,-10.0916,0.1149,0.5585,-0.1063,-0.0224
14999,-1.3360,-10.1107,0.0599,0.5609,-0.1045,-0.0234
15007,-1.2761,-10.1586,0.1245,0.5644,-0.1045,-0.0221
15014,-1.2809,-10.0987,0.1532,0.5692,-0.1061,-0.0218
15023,-1.2737,-10.1418,0.0599,0.5721,-0.1063,-0.0205
15031,-1.3048,-10.1538,0.1077,0.5748,-0.1058,-0.0187
15039,-1.2809,-10.1825,0.1748,0.5809,-0.1013,-0.0163
15047,-1.3096,-10.1634,0.0168,0.5796,-0.1053,-0.0149
15054,-1.3216,-10.1203,0.1125,0.5846,-0.1085,-0.0176
15063,-1.2641,-10.1682,0.1077,0.5838,-0.1037,-0.0149
15071,-1.2785,-10.1466,0.0838,0.5865,-0.1071,-0.0133
15079,-1.2881,-10.2017,0.1532,0.5886,-0.1069,-0.0107
15087,-1.3336,-10.1514,0.1006,0.5907,-0.1061,-0.0109
15095,-1.2881,-10.1634,0.1030,0.5883,-0.1058,-0.0093
15102,-1.3216,-10.1490,0.0551,0.5899,-0.1045,-0.0115
15111,-1.2905,-10.2232,0.0527,0.5841,-0.1077,-0.0088
15119,-1.3192,-10.1394,0.0670,0.5865,-0.1058,-0.0085
15127,-1.2833,-10.2352,0.0790,0.5790,-0.1066,-0.0083
15135,-1.2809,-10.1370,0.1125,0.5804,-0.1050,-0.0069
15142,-1.3527,-10.0963,0.0742,0.5737,-0.1023,-0.0043
15151,-1.3216,-10.1131,0.0790,0.5705,-0.1034,-0.0011
15159,-1.2689,-10.1730,0.0000,0.5678,-0.1092,-0.0021
15167,-1.2689,-10.1299,0.0766,0.5617,-0.1066,-0.0011
15175,-1.2857,-10.1658,0.1053,0.5582,-0.1066,0.0032
15183,-1.2881,-10.1299,0.0934,0.5564,-0.1079,0.0040
15191,-1.3048,-10.1203,0.1197,0.5481,-0.1077,0.0035
15199,-1.2210,-10.1227,0.1221,0.5446,-0.1037,0.0080
15207,-1.2905,-10.0868,0.0431,0.5367,-0.1063,0.0080
15215,-1.2833,-10.1179,0.0862,0.5276,-0.1071,0.0091
15223,-1.2689,-10.0916,0.0646,0.5217,-0.1077,0.0101
15230,-1.2833,-10.0844,-0.0072,0.5143,-0.1053,0.0115
15239,-1.2713,-10.0724,0.0000,0.5071,-0.1077,0.0109
15247,-1.2785,-10.0341,0.0694,0.4994,-0.1061,0.0149
15255,-1.3599,-10.0341,0.0407,0.4868,-0.1034,0.0176
15263,-1.2594,-10.0317,-0.0024,0.4796,-0.1034,0.0200
15271,-1.2402,-10.0389,0.0646,0.4706,-0.1050,0.0184
15279,-1.2833,-10.0604,0.0551,0.4660,-0.1034,0.0218
15287,-1.2809,-9.9790,0.1245,0.4509,-0.1034,0.0200
15295,-1.2689,-10.0078,0.0383,0.4429,-0.1010,0.0237
15303,-1.2522,-9.9742,0.0383,0.4317,-0.1007,0.0290
15311,-1.2833,-9.8833,0.0910,0.4226,-0.0983,0.0264
15319,-1.2809,-9.9862,-0.0239,0.4133,-0.0975,0.0274
15327,-1.2953,-9.9407,0.0359,0.4013,-0.0933,0.0314
15335,-1.2186,-9.9120,0.0910,0.3904,-0.0879,0.0338
15343,-1.2881,-9.8976,0.0239,0.3781,-0.0909,0.0349
15351,-1.3431,-9.9431,0.0838,0.3717,-0.0927,0.0376
15360,-1.2689,-9.9264,0.0072,0.3613,-0.0853,0.0378
15367,-1.2641,-9.9168,0.0646,0.3469,-0.0855,0.0410
15375,-1.2330,-9.8402,0.0694,0.3328,-0.0813,0.0381
15383,-1.2857,-9.8330,0.0239,0.3206,-0.0773,0.0421
15391,-1.2713,-9.8019,-0.0311,0.3091,-0.0802,0.0437
15399,-1.2258,-9.7683,-0.0120,0.2976,-0.0706,0.0485
15407,-1.2402,-9.8354,0.0455,0.2835,-0.0695,0.0466
15415,-1.2713,-9.7899,0.0048,0.2705,-0.0679,0.0472
15423,-1.2522,-9.8138,0.0982,0.2561,-0.0655,0.0485
15431,-1.2378,-9.7971,0.0359,0.2465,-0.0642,0.0490
15439,-1.2641,-9.8114,0.0599,0.2276,-0.0573,0.0536
15448,-1.2594,-9.7588,-0.0048,0.2153,-0.0565,0.0530
15455,-1.3024,-9.8306,0.0742,0.2025,-0.0520,0.0546
15463,-1.2617,-9.7444,0.0287,0.1908,-0.0493,0.0594
15471,-1.1971,-9.7683,0.0599,0.1751,-0.0464,0.0565
15479,-1.1995,-9.7851,0.0168,0.1615,-0.0413,0.0562
15488,-1.2139,-9.7205,-0.0120,0.1487,-0.0357,0.0613
15495,-1.2234,-9.7612,0.1604,0.1351,-0.0312,0.0610
15503,-1.2163,-9.7612,-0.0263,0.1202,-0.0309,0.0637
15511,-1.2091,-9.7851,0.0646,0.1069,-0.0258,0.0637
15519,-1.2546,-9.7492,0.0048,0.0871,-0.0205,0.0642
15527,-1.2426,-9.7612,0.1006,0.0759,-0.0213,0.0671
15536,-1.2617,-9.6414,0.0646,0.0570,-0.0139,0.0669
15543,-1.1923,-9.7157,0.0287,0.0442,-0.0083,0.0711
15551,-1.2570,-9.7348,0.0048,0.0333,-0.0075,0.0709
15559,-1.2019,-9.7037,0.0431,0.0141,-0.0024,0.0762
15567,-1.2450,-9.7516,0.0383,0.0008,0.0024,0.0735
15576,-1.2330,-9.7540,0.0503,-0.0187,0.0064,0.0770
15583,-1.2522,-9.6822,0.0527,-0.0338,0.0101,0.0762
15591,-1.2378,-9.6774,0.0455,-0.0504,0.0120,0.0778
15599,-1.2210,-9.6798,0.0551,-0.0608,0.0179,0.0805
15607,-1.3096,-9.7540,0.1269,-0.0749,0.0184,0.0818
15616,-1.2402,-9.7420,0.0407,-0.0919,0.0173,0.0842
15623,-1.1875,-9.7851,0.0838,-0.1077,0.0240,0.0847
15631,-1.2306,-9.7516,-0.0168,-0.1239,0.0285,0.0858
15639,-1.1995,-9.7971,0.0287,-0.1378,0.0298,0.0858
15647,-1.2234,-9.7181,0.0072,-0.1514,0.0333,0.0911
15655,-1.2665,-9.7252,0.0790,-0.1681,0.0394,0.0898
15664,-1.2737,-9.7899,0.0144,-0.1857,0.0416,0.0911
15671,-1.2163,-9.8258,0.0862,-0.1980,0.0466,0.0927
15679,-1.2067,-9.7109,0.0311,-0.2145,0.0456,0.0922
15687,-1.2426,-9.8066,0.0192,-0.2289,0.0522,0.0941
15695,-1.2546,-9.7564,0.0575,-0.2443,0.0560,0.0922
15704,-1.2426,-9.8306,-0.0096,-0.2571,0.0608,0.0965
15711,-1.2522,-9.8497,0.0886,-0.2737,0.0629,0.0954
15719,-1.2689,-9.8186,0.0862,-0.2888,0.0666,0.0959
15727,-1.2354,-9.8330,0.0287,-0.3030,0.0725,0.0949
15735,-1.2570,-9.8282,0.0766,-0.3171,0.0727,0.0917
15744,-1.2426,-9.8497,0.0144,-0.3293,0.0781,0.0935
15752,-1.2857,-9.8785,0.0192,-0.3400,0.0813,0.0909
15759,-1.2282,-9.8857,0.1365,-0.3507,0.0842,0.0927
15767,-1.2091,-9.8881,0.0383,-0.3635,0.0885,0.0895
15775,-1.2785,-9.9240,0.1508,-0.3714,0.0922,0.0903
15783,-1.2163,-9.8857,0.0311,-0.3805,0.0949,0.0885
15792,-1.2785,-9.8402,0.0622,-0.3909,0.0983,0.0906
15799,-1.3072,-9.9168,0.0383,-0.4021,0.1005,0.0895
15807,-1.2019,-9.9240,0.1365,-0.4088,0.1042,0.0869
15815,-1.2546,-9.9575,0.2083,-0.4128,0.1074,0.0871
15823,-1.2881,-9.9838,0.1245,-0.4239,0.1119,0.0869
15832,-1.2546,-10.0054,0.1125,-0.4274,0.1114,0.0842
15840,-1.2546,-9.9982,0.0910,-0.4367,0.1156,0.0842
15847,-1.2522,-9.9647,0.1101,-0.4437,0.1146,0.0834
15855,-1.2522,-10.0293,0.1269,-0.4514,0.1162,0.0807
15863,-1.2570,-9.9551,0.1460,-0.4594,0.1194,0.0839
15872,-1.2737,-10.0580,0.0838,-0.4618,0.1207,0.0826
15880,-1.2737,-10.0652,0.0718,-0.4695,0.1215,0.0823
15887,-1.2617,-10.0437,0.1652,-0.4738,0.1215,0.0815
15895,-1.2761,-10.0317,0.1580,-0.4796,0.1239,0.0826
15903,-1.2570,-10.0389,0.1006,-0.4868,0.1218,0.0826
15911,-1.2402,-10.0437,0.0958,-0.4903,0.1186,0.0805
15920,-1.3168,-10.0509,0.1508,-0.4983,0.1210,0.0826
15928,-1.2833,-10.1011,0.0383,-0.5028,0.1191,0.0821
15935,-1.3048,-10.1418,0.1867,-0.5073,0.1186,0.0810
15943,-1.2833,-10.1251,0.0359,-0.5151,0.1172,0.0805
15951,-1.2641,-10.1610,0.0838,-0.5185,0.1146,0.0805
15960,-1.3192,-10.1131,0.1221,-0.5241,0.1154,0.0783
15968,-1.2641,-10.0604,0.1173,-0.5273,0.1148,0.0759
15975,-1.2905,-10.1394,0.1987,-0.5335,0.1122,0.0773
15983,-1.3001,-10.1251,0.1317,-0.5377,0.1124,0.0757
15991,-1.2977,-10.1466,0.2370,-0.5465,0.1127,0.0775
16000,-1.2881,-10.1347,0.0335,-0.5446,0.1098,0.0759
16008,-1.2881,-10.1251,0.0048,-0.5500,0.1090,0.0754
16016,-1.3072,-10.1083,0.1389,-0.5537,0.1071,0.0714
16023,-1.3001,-10.1179,0.0934,-0.5569,0.1058,0.0695
16031,-1.2809,-10.1251,0.1700,-0.5593,0.1042,0.0693
16039,-1.2570,-10.1155,0.0646,-0.5625,0.1007,0.0663
16048,-1.2881,-10.1299,0.2011,-0.5622,0.1031,0.0616
16056,-1.2402,-10.1586,0.2059,-0.5612,0.1015,0.0653
16063,-1.2617,-10.0868,0.1197,-0.5612,0.0999,0.0634
16071,-1.3144,-10.1730,0.0646,-0.5593,0.1013,0.0605
16079,-1.3312,-10.1538,0.2586,-0.5582,0.0981,0.0618
16088,-1.3048,-10.0940,0.1891,-0.5558,0.0967,0.0573
16096,-1.2857,-10.1394,0.0982,-0.5508,0.0927,0.0549
16104,-1.2474,-10.1370,0.1317,-0.5457,0.0930,0.0520
16111,-1.2881,-10.1394,0.1580,-0.5457,0.0906,0.0530
16119,-1.3024,-10.1323,0.1221,-0.5431,0.0917,0.0488
16128,-1.3288,-10.1275,0.2418,-0.5348,0.0885,0.0498
16136,-1.3024,-10.1418,0.2346,-0.5308,0.0898,0.0464
16144,-1.2067,-10.1179,0.1508,-0.5223,0.0901,0.0466
16151,-1.2953,-10.0940,0.2179,-0.5175,0.0882,0.0450
16159,-1.3264,-10.0724,0.2394,-0.5111,0.0871,0.0416
16167,-1.3096,-10.0604,0.2682,-0.5063,0.0895,0.0386
16176,-1.2929,-10.0820,0.1604,-0.4938,0.0807,0.0392
16184,-1.2929,-10.0365,0.1556,-0.4855,0.0826,0.0357
16191,-1.2953,-10.0652,0.1077,-0.4815,0.0823,0.0357
16199,-1.2139,-10.0149,0.2682,-0.4698,0.0815,0.0368
16207,-1.2522,-10.0317,0.1820,-0.4578,0.0797,0.0362
16216,-1.3288,-9.9671,0.2658,-0.4517,0.0781,0.0325
16224,-1.2809,-10.0197,0.2251,-0.4447,0.0786,0.0309
16232,-1.2809,-10.0365,0.1030,-0.4335,0.0778,0.0314
16239,-1.2857,-9.9623,0.1724,-0.4263,0.0775,0.0293
16247,-1.2689,-9.9527,0.1484,-0.4122,0.0749,0.0261
16256,-1.2594,-10.0006,0.2825,-0.4050,0.0666,0.0234
16264,-1.2594,-9.9695,0.1245,-0.3973,0.0719,0.0290
16272,-1.3001,-9.9264,0.1197,-0.3874,0.0714,0.0213
16279,-1.2617,-9.8785,0.2753,-0.3754,0.0679,0.0237
16287,-1.2785,-9.9407,0.1484,-0.3645,0.0658,0.0211
16295,-1.1923,-9.9240,0.2394,-0.3579,0.0624,0.0179
16304,-1.2641,-9.9599,0.1293,-0.3499,0.0663,0.0179
16312,-1.2330,-9.9240,0.2107,-0.3365,0.0600,0.0165
16320,-1.2330,-9.9000,0.2155,-0.3309,0.0632,0.0152
16327,-1.2809,-9.8737,0.2059,-0.3182,0.0597,0.0152
16335,-1.2737,-9.8761,0.2442,-0.3056,0.0552,0.0133
16344,-1.2306,-9.8952,0.2394,-0.2955,0.0552,0.0133
16352,-1.2378,-9.8569,0.1317,-0.2846,0.0546,0.0101
16360,-1.2234,-9.8641,0.2131,-0.2697,0.0549,0.0088
16367,-1.2546,-9.8881,0.2107,-0.2595,0.0493,0.0067
16375,-1.2833,-9.8617,0.1580,-0.2462,0.0464,0.0043
16384,-1.2186,-9.8210,0.1652,-0.2345,0.0464,0.0037
16392,-1.2234,-9.8210,0.1987,-0.2214,0.0450,0.0019
16400,-1.2234,-9.8186,0.1844,-0.2041,0.0466,0.0003
16408,-1.2306,-9.7923,0.2298,-0.1927,0.0418,-0.0013
16415,-1.2522,-9.7300,0.2059,-0.1801,0.0373,-0.0013
16423,-1.2450,-9.8210,0.2203,-0.1649,0.0373,-0.0021
16432,-1.2163,-9.7707,0.2418,-0.1452,0.0386,-0.0088
16440,-1.1851,-9.7636,0.1987,-0.1348,0.0322,-0.0072
16448,-1.2019,-9.7707,0.2682,-0.1186,0.0290,-0.0107
16455,-1.2522,-9.7995,0.2514,-0.1023,0.0277,-0.0109
16463,-1.1923,-9.7612,0.1700,-0.0837,0.0272,-0.0139
16472,-1.2139,-9.7588,0.1915,-0.0693,0.0221,-0.0149
16480,-1.1971,-9.7109,0.2274,-0.0576,0.0195,-0.0149
16488,-1.2594,-9.7205,0.1867,-0.0394,0.0171,-0.0160
16496,-1.2378,-9.7252,0.2777,-0.0211,0.0080,-0.0184
16503,-1.2234,-9.7324,0.2370,-0.0083,0.0059,-0.0203
16512,-1.1995,-9.7037,0.2562,0.0101,0.0051,-0.0211
16520,-1.2354,-9.6941,0.1580,0.0240,0.0000,-0.0203
16528,-1.2617,-9.7803,0.2442,0.0405,-0.0032,-0.0240
16536,-1.2474,-9.7372,0.2083,0.0560,-0.0083,-0.0229
16543,-1.2785,-9.7683,0.1556,0.0717,-0.0093,-0.0250
16551,-1.2570,-9.7516,0.2466,0.0863,-0.0141,-0.0197
16560,-1.2282,-9.7205,0.1844,0.0994,-0.0187,-0.0208
16568,-1.2522,-9.7444,0.2059,0.1148,-0.0253,-0.0218
16576,-1.2474,-9.7827,0.2251,0.1303,-0.0280,-0.0213
16584,-1.3072,-9.7659,0.2346,0.1455,-0.0296,-0.0208
16591,-1.1923,-9.7420,0.1556,0.1591,-0.0360,-0.0232
16600,-1.2833,-9.7995,0.1508,0.1740,-0.0402,-0.0250
16608,-1.2330,-9.7348,0.2274,0.1852,-0.0450,-0.0224
16616,-1.2306,-9.7827,0.2346,0.1974,-0.0501,-0.0232
16624,-1.2234,-9.7947,0.1293,0.2145,-0.0528,-0.0272
16631,-1.2641,-9.7492,0.2634,0.2276,-0.0584,-0.0240
16640,-1.1875,-9.8354,0.2538,0.2364,-0.0637,-0.0277
16648,-1.2186,-9.7779,0.1915,0.2537,-0.0663,-0.0248
16656,-1.2115,-9.8186,0.2610,0.2627,-0.0717,-0.0280
16664,-1.2929,-9.7803,0.1389,0.2777,-0.0770,-0.0242
16672,-1.2809,-9.8282,0.1700,0.2931,-0.0810,-0.0261
16679,-1.2426,-9.8306,0.1987,0.3051,-0.0845,-0.0266
16688,-1.2761,-9.8450,0.1437,0.3136,-0.0858,-0.0253
16696,-1.2402,-9.8761,0.2370,0.3304,-0.0903,-0.0298
16704,-1.2809,-9.8665,0.1437,0.3408,-0.0949,-0.0280
16712,-1.2546,-9.8641,0.1532,0.3523,-0.0973,-0.0264
16719,-1.3144,-9.8737,0.1772,0.3616,-0.0978,-0.0282
16728,-1.2905,-9.9216,0.0790,0.3754,-0.1013,-0.0261
16736,-1.2115,-9.9168,0.1963,0.3821,-0.1077,-0.0237
16744,-1.2833,-9.9695,0.1867,0.3888,-0.1063,-0.0248
16752,-1.3001,-9.9479,0.0766,0.4024,-0.1079,-0.0224
16760,-1.3312,-9.9479,0.1269,0.4061,-0.1092,-0.0258
16768,-1.2450,-9.9527,0.1939,0.4173,-0.1090,-0.0253
16776,-1.2689,-10.0365,0.1963,0.4261,-0.1082,-0.0258
16784,-1.2450,-10.0030,0.1748,0.4354,-0.1055,-0.0269
16792,-1.2474,-10.0054,0.2945,0.4421,-0.1077,-0.0237
16800,-1.3001,-10.0149,0.1053,0.4509,-0.1053,-0.0242
16807,-1.3527,-9.9982,0.1556,0.4575,-0.1077,-0.0216
16816,-1.2809,-10.0054,0.0886,0.4634,-0.1061,-0.0253
16824,-1.2929,-10.0006,0.1652,0.4714,-0.1071,-0.0224
16832,-1.2977,-10.0604,0.1125,0.4778,-0.1015,-0.0226
16840,-1.2282,-10.0652,0.0670,0.4858,-0.1026,-0.0208
16848,-1.2881,-10.0293,0.0910,0.4898,-0.1058,-0.0203
16856,-1.2929,-10.0269,0.1820,0.4956,-0.0994,-0.0208
16864,-1.2977,-10.0365,0.0742,0.4986,-0.1023,-0.0197
16872,-1.2881,-10.0748,0.0958,0.5041,-0.0997,-0.0181
16880,-1.3048,-10.1059,0.0335,0.5068,-0.0975,-0.0197
16888,-1.3192,-10.0820,0.1724,0.5140,-0.0983,-0.0189
16896,-1.2809,-10.0963,0.1508,0.5175,-0.0935,-0.0184
16904,-1.3336,-10.0772,0.1077,0.5196,-0.0959,-0.0173
16912,-1.2953,-10.0963,0.0599,0.5252,-0.0930,-0.0192
16920,-1.2737,-10.1730,0.1269,0.5257,-0.0946,-0.0165
16928,-1.3336,-10.1011,0.0886,0.5297,-0.0925,-0.0141
16935,-1.2905,-10.1107,0.1101,0.5332,-0.0933,-0.0133
16944,-1.2833,-10.1466,0.0479,0.5359,-0.0906,-0.0165
16952,-1.2354,-10.0748,0.2107,0.5396,-0.0898,-0.0101
16960,-1.3048,-10.1394,0.1149,0.5409,-0.0925,-0.0128
16968,-1.2546,-10.1203,0.0407,0.5420,-0.0901,-0.0104
16976,-1.3072,-10.1107,0.1341,0.5399,-0.0911,-0.0099
16984,-1.2450,-10.1323,0.1245,0.5428,-0.0898,-0.0080
16992,-1.2929,-10.1562,0.0934,0.5412,-0.0922,-0.0077
17000,-1.3216,-10.0963,0.0383,0.5473,-0.0901,-0.0091
17008,-1.3384,-10.0916,0.0790,0.5404,-0.0887,-0.0040
17016,-1.3192,-10.1323,0.0670,0.5399,-0.0895,-0.0045
17024,-1.3048,-10.1011,0.0886,0.5364,-0.0903,-0.0003
17032,-1.2641,-10.0940,0.0646,0.5367,-0.0909,0.0011
17040,-1.3072,-10.0628,0.0479,0.5292,-0.0885,0.0021
17048,-1.2689,-10.1538,0.1269,0.5276,-0.0911,0.0035
17056,-1.2785,-10.1083,0.0982,0.5215,-0.0909,0.0037
17064,-1.2929,-10.1179,0.1317,0.5212,-0.0949,0.0072
17072,-1.3024,-10.1011,0.0215,0.5172,-0.0911,0.0040
17080,-1.2522,-10.0485,0.0527,0.5111,-0.0946,0.0080
17088,-1.2929,-10.0796,0.0239,0.5047,-0.0957,0.0123
17096,-1.2713,-10.0940,0.0120,0.5015,-0.0959,0.0096
17104,-1.2977,-10.0820,0.0790,0.4940,-0.0970,0.0147
17112,-1.3168,-10.0317,0.1125,0.4858,-0.0927,0.0155
17120,-1.3455,-10.0748,0.0862,0.4804,-0.0935,0.0195
17128,-1.2953,-10.0245,0.1030,0.4716,-0.0949,0.0181
17136,-1.3024,-10.0724,0.0982,0.4636,-0.0927,0.0192
17144,-1.2809,-10.0221,0.0646,0.4572,-0.0938,0.0224
17153,-1.2929,-10.0413,0.0527,0.4487,-0.0965,0.0232
17160,-1.2450,-10.0365,0.0958,0.4413,-0.0911,0.0245
17168,-1.2833,-9.9814,0.0215,0.4279,-0.0949,0.0258
17176,-1.2354,-9.9288,0.0048,0.4221,-0.0911,0.0274
17184,-1.3264,-9.9359,0.0694,0.4133,-0.0946,0.0309
17192,-1.3144,-9.9383,0.1197,0.4032,-0.0895,0.0330
17200,-1.3144,-9.9623,0.0742,0.3933,-0.0914,0.0309
17208,-1.2977,-9.9551,-0.0263,0.3856,-0.0911,0.0322
17216,-1.2258,-9.9407,0.0646,0.3765,-0.0909,0.0352
17224,-1.2689,-9.9048,0.1053,0.3659,-0.0877,0.0389
17232,-1.2665,-9.9455,0.0024,0.3555,-0.0855,0.0376
17241,-1.2737,-9.9048,0.0335,0.3445,-0.0823,0.0384
17248,-1.3144,-9.8497,0.0479,0.3341,-0.0807,0.0429
17256,-1.2665,-9.8689,0.0622,0.3235,-0.0797,0.0458
17264,-1.2234,-9.8881,0.0862,0.3134,-0.0794,0.0445
17272,-1.3001,-9.8569,0.1245,0.3038,-0.0773,0.0466
17281,-1.3336,-9.8545,0.0048,0.2920,-0.0687,0.0448
17288,-1.2641,-9.8162,0.0287,0.2806,-0.0717,0.0485
17296,-1.2737,-9.8521,0.0383,0.2697,-0.0666,0.0498
17304,-1.2282,-9.7827,0.0646,0.2577,-0.0661,0.0517
17312,-1.2474,-9.8689,0.0910,0.2443,-0.0624,0.0498
17320,-1.2977,-9.8090,0.0862,0.2348,-0.0610,0.0520
17329,-1.2785,-9.8019,0.0000,0.2206,-0.0554,0.0573
17336,-1.2594,-9.8138,0.0910,0.2084,-0.0552,0.0565
17344,-1.2402,-9.7779,0.0168,0.1966,-0.0498,0.0576
17352,-1.1827,-9.7875,0.0670,0.1812,-0.0501,0.0565
17360,-1.2354,-9.7923,0.0694,0.1692,-0.0421,0.0589
17369,-1.2977,-9.7947,0.0934,0.1569,-0.0410,0.0605
17376,-1.2450,-9.7947,0.0958,0.1439,-0.0360,0.0640
17384,-1.2809,-9.6965,0.0862,0.1335,-0.0325,0.0621
17392,-1.2617,-9.7540,0.0120,0.1178,-0.0296,0.0640
17400,-1.2474,-9.7492,0.0599,0.1058,-0.0285,0.0658
17409,-1.2450,-9.7516,0.0790,0.0930,-0.0245,0.0677
17417,-1.2139,-9.7276,0.0072,0.0805,-0.0208,0.0695
17424,-1.2570,-9.7229,0.0359,0.0632,-0.0155,0.0703
17432,-1.1947,-9.7109,0.0551,0.0498,-0.0128,0.0730
17440,-1.2833,-9.7037,0.0144,0.0376,-0.0096,0.0725
17448,-1.2450,-9.7516,-0.0527,0.0192,-0.0067,0.0738
17457,-1.2594,-9.7899,0.0599,0.0075,-0.0011,0.0767
17464,-1.2761,-9.7444,0.0766,-0.0056,-0.0008,0.0773
17472,-1.2186,-9.7109,0.0838,-0.0245,0.0027,0.0783
17480,-1.2019,-9.7420,0.0215,-0.0349,0.0069,0.0805
17488,-1.1851,-9.7516,0.0144,-0.0485,0.0083,0.0818
17497,-1.2809,-9.7348,-0.0215,-0.0626,0.0149,0.0821
17505,-1.2761,-9.7827,0.1221,-0.0751,0.0163,0.0834
17512,-1.2881,-9.7803,-0.0072,-0.0901,0.0195,0.0858
17520,-1.2474,-9.7588,0.0192,-0.1034,0.0250,0.0837
17528,-1.2163,-9.7731,0.0718,-0.1180,0.0282,0.0861
17537,-1.2258,-9.7588,0.1389,-0.1327,0.0290,0.0861
17545,-1.2210,-9.7875,0.0670,-0.1442,0.0341,0.0887
17552,-1.2043,-9.8282,0.1365,-0.1596,0.0373,0.0893
17560,-1.2929,-9.7875,0.1221,-0.1756,0.0360,0.0909
17568,-1.2833,-9.7875,-0.0263,-0.1897,0.0458,0.0927
17576,-1.2354,-9.8114,0.0766,-0.2028,0.0482,0.0938
17585,-1.2426,-9.7803,0.0838,-0.2148,0.0514,0.0895
17592,-1.2929,-9.7683,0.0120,-0.2300,0.0536,0.0919
17600,-1.2378,-9.8497,0.0551,-0.2446,0.0581,0.0930
17608,-1.2163,-9.8426,0.0742,-0.2590,0.0626,0.0933
17616,-1.2474,-9.8665,0.0072,-0.2713,0.0669,0.0922
17625,-1.2474,-9.8857,0.0790,-0.2817,0.0730,0.0922
17633,-1.2546,-9.8114,0.0503,-0.2942,0.0741,0.0927
17640,-1.3288,-9.7971,0.0335,-0.3072,0.0770,0.0887
17648,-1.2115,-9.9072,0.0527,-0.3166,0.0813,0.0903
17656,-1.3001,-9.8976,0.0790,-0.3291,0.0826,0.0885
17665,-1.3144,-9.9216,-0.0168,-0.3347,0.0890,0.0877
17673,-1.2737,-9.9216,0.0359,-0.3472,0.0941,0.0866
17680,-1.2785,-9.8689,0.0934,-0.3520,0.0938,0.0869
17688,-1.2474,-9.9359,0.0694,-0.3627,0.0927,0.0874
17696,-1.2234,-9.9240,0.0096,-0.3712,0.0967,0.0869
17704,-1.2689,-9.9814,0.0886,-0.3800,0.0989,0.0861
17713,-1.2665,-9.9192,0.1365,-0.3858,0.1026,0.0823
17721,-1.3024,-9.9766,0.1317,-0.3922,0.1053,0.0831
17728,-1.3001,-9.9407,0.1053,-0.3994,0.1061,0.0837
17736,-1.3144,-9.9096,0.1173,-0.4026,0.1061,0.0821
17744,-1.2689,-9.9551,0.1197,-0.4122,0.1055,0.0813
17753,-1.3120,-10.0102,0.1460,-0.4170,0.1066,0.0802
17761,-1.2617,-10.0221,0.1006,-0.4237,0.1103,0.0791
17768,-1.2737,-9.9958,0.0838,-0.4287,0.1119,0.0797
17776,-1.2570,-10.0245,0.0790,-0.4367,0.1098,0.0778
17784,-1.2594,-10.0772,0.0000,-0.4381,0.1106,0.0794
17793,-1.3024,-10.0245,0.0838,-0.4423,0.1095,0.0781
17801,-1.2163,-10.0389,0.1341,-0.4525,0.1071,0.0799
17809,-1.3479,-10.0580,0.1484,-0.4543,0.1077,0.0781
17816,-1.3288,-10.0772,0.1077,-0.4618,0.1066,0.0775
17824,-1.2474,-10.0102,0.0862,-0.4668,0.1047,0.0746
17832,-1.2881,-10.0604,0.1317,-0.4692,0.1039,0.0754
17841,-1.2689,-10.0556,0.1413,-0.4756,0.1023,0.0743
17849,-1.3072,-10.0317,0.1413,-0.4799,0.1037,0.0741
17856,-1.2522,-10.0868,0.1077,-0.4834,0.0991,0.0727
17864,-1.2641,-10.0485,0.0742,-0.4892,0.0994,0.0730
17872,-1.2953,-10.0676,0.1604,-0.4943,0.1010,0.0749
17881,-1.2522,-10.1155,0.0958,-0.4975,0.0975,0.0711
17889,-1.3216,-10.0892,0.0670,-0.4978,0.0970,0.0714
17897,-1.2474,-10.1227,0.0814,-0.5063,0.0959,0.0701
17904,-1.3384,-10.1011,0.1293,-0.5084,0.0986,0.0690
17912,-1.2689,-10.0892,0.1413,-0.5121,0.0925,0.0642
17921,-1.3240,-10.0580,0.1341,-0.5127,0.0887,0.0634
17929,-1.2929,-10.0892,0.2107,-0.5145,0.0930,0.0650
17937,-1.2330,-10.1394,0.1604,-0.5161,0.0943,0.0618
17944,-1.3360,-10.0724,0.1556,-0.5196,0.0901,0.0624
17952,-1.3168,-10.0987,0.1532,-0.5167,0.0874,0.0605
17960,-1.2594,-10.1179,0.2059,-0.5159,0.0858,0.0541
17969,-1.2474,-10.1179,0.1365,-0.5156,0.0858,0.0552
17977,-1.2761,-10.1155,0.1317,-0.5140,0.0866,0.0536
17985,-1.2761,-10.1035,0.1700,-0.5119,0.0829,0.0525
17992,-1.2761,-10.0652,0.1413,-0.5089,0.0802,0.0501
18000,-1.2737,-10.1083,0.1748,-0.5044,0.0815,0.0501
18009,-1.2498,-10.1059,0.1628,-0.5020,0.0821,0.0485
18017,-1.2617,-10.0485,0.1437,-0.4975,0.0781,0.0448
18025,-1.3072,-10.0820,0.2418,-0.4895,0.0799,0.0418
18032,-1.2929,-10.0652,0.2107,-0.4858,0.0786,0.0416
18040,-1.2474,-10.0437,0.2969,-0.4788,0.0765,0.0392
18049,-1.2522,-10.0461,0.1245,-0.4740,0.0794,0.0386
18057,-1.2617,-10.0676,0.2035,-0.4642,0.0789,0.0386
18065,-1.3001,-10.0102,0.1508,-0.4599,0.0765,0.0360
18073,-1.2354,-10.0317,0.1580,-0.4501,0.0746,0.0312
18080,-1.2354,-10.0197,0.0838,-0.4458,0.0773,0.0336
18088,-1.2689,-10.0221,0.2155,-0.4373,0.0773,0.0314
18097,-1.2641,-10.0580,0.1556,-0.4298,0.0754,0.0317
18105,-1.2641,-9.9934,0.1269,-0.4218,0.0733,0.0296
18113,-1.2761,-9.9407,0.1676,-0.4138,0.0722,0.0285
18120,-1.2905,-9.9575,0.2370,-0.4042,0.0714,0.0253
18128,-1.3001,-9.9671,0.1844,-0.3946,0.0709,0.0250
18137,-1.2498,-9.9431,0.0934,-0.3890,0.0706,0.0264
18145,-1.2282,-9.9766,0.2346,-0.3786,0.0685,0.0253
18153,-1.2785,-9.9503,0.1437,-0.3701,0.0666,0.0213
18161,-1.3264,-9.9288,0.1604,-0.3624,0.0674,0.0208
18168,-1.3168,-9.9527,0.2322,-0.3520,0.0645,0.0200
18177,-1.2139,-9.9072,0.1748,-0.3448,0.0645,0.0189
18185,-1.2474,-9.9431,0.1580,-0.3349,0.0632,0.0184
18193,-1.2641,-9.9240,0.1676,-0.3259,0.0634,0.0179
18201,-1.2641,-9.9072,0.2658,-0.3163,0.0616,0.0117
18208,-1.2426,-9.8497,0.1604,-0.3062,0.0605,0.0128
18216,-1.2546,-9.9192,0.1796,-0.2958,0.0578,0.0107
18225,-1.2115,-9.8617,0.1724,-0.2872,0.0568,0.0115
18233,-1.2354,-9.8330,0.1604,-0.2771,0.0549,0.0104
18241,-1.2881,-9.9024,0.1724,-0.2654,0.0554,0.0077
18248,-1.2929,-9.8114,0.2227,-0.2545,0.0509,0.0056
18256,-1.2689,-9.8258,0.1820,-0.2430,0.0512,0.0048
18265,-1.2570,-9.8426,0.1844,-0.2334,0.0488,0.0013
18273,-1.2210,-9.8306,0.1891,-0.2198,0.0474,0.0000
18281,-1.2881,-9.8043,0.1676,-0.2078,0.0416,-0.0005
18289,-1.1995,-9.7995,0.2322,-0.1964,0.0421,-0.0027
18296,-1.2354,-9.8043,0.2179,-0.1820,0.0402,-0.0064
18305,-1.2546,-9.7659,0.2155,-0.1756,0.0378,-0.0032
18313,-1.2546,-9.7588,0.1628,-0.1561,0.0368,-0.0064
18321,-1.2330,-9.7923,0.2131,-0.1460,0.0354,-0.0075
18329,-1.2570,-9.7779,0.2442,-0.1282,0.0320,-0.0109
18336,-1.2498,-9.8186,0.1604,-0.1172,0.0280,-0.0125
18344,-1.2713,-9.7468,0.2083,-0.1026,0.0261,-0.0112
18353,-1.2378,-9.8019,0.2155,-0.0874,0.0218,-0.0120
18361,-1.2306,-9.7707,0.2298,-0.0717,0.0197,-0.0160
18369,-1.2594,-9.7971,0.2394,-0.0618,0.0168,-0.0157
18377,-1.1947,-9.7252,0.1700,-0.0453,0.0109,-0.0171
18384,-1.2354,-9.7588,0.1987,-0.0301,0.0091,-0.0189
18393,-1.1995,-9.7707,0.2035,-0.0152,0.0083,-0.0160
18401,-1.2498,-9.7636,0.2059,-0.0005,0.0019,-0.0176
18409,-1.2546,-9.7229,0.2969,0.0171,0.0021,-0.0181
18417,-1.2570,-9.7396,0.2059,0.0293,-0.0053,-0.0187
18424,-1.1995,-9.8019,0.2490,0.0442,-0.0080,-0.0213
18433,-1.2761,-9.7875,0.1796,0.0573,-0.0117,-0.0234
18441,-1.2570,-9.7300,0.2107,0.0701,-0.0149,-0.0224
18449,-1.2522,-9.7540,0.2035,0.0882,-0.0208,-0.0224
18457,-1.2234,-9.7659,0.1748,0.1002,-0.0240,-0.0184
18465,-1.2617,-9.7659,0.2682,0.1138,-0.0253,-0.0213
18472,-1.2067,-9.7659,0.1820,0.1274,-0.0282,-0.0187
18481,-1.3072,-9.7947,0.1389,0.1394,-0.0320,-0.0218
18489,-1.2115,-9.7995,0.1676,0.1519,-0.0397,-0.0242
18497,-1.2019,-9.7612,0.1724,0.1641,-0.0424,-0.0221
18505,-1.2139,-9.8210,0.1796,0.1769,-0.0453,-0.0256
18512,-1.3240,-9.8114,0.1915,0.1868,-0.0538,-0.0232
18521,-1.2641,-9.8474,0.2346,0.1990,-0.0514,-0.0261
18529,-1.2594,-9.8186,0.3160,0.2140,-0.0562,-0.0269
18537,-1.2402,-9.8617,0.1915,0.2254,-0.0626,-0.0266
18545,-1.2378,-9.8378,0.1484,0.2382,-0.0666,-0.0250
18553,-1.2881,-9.7683,0.1987,0.2481,-0.0655,-0.0274
18561,-1.2570,-9.8761,0.1676,0.2635,-0.0711,-0.0301
18569,-1.2929,-9.8569,0.2203,0.2755,-0.0778,-0.0261
18577,-1.2617,-9.8881,0.1915,0.2880,-0.0767,-0.0261
18585,-1.2641,-9.8976,0.1317,0.3000,-0.0786,-0.0269
18593,-1.3024,-9.8569,0.1245,0.3102,-0.0834,-0.0261
18600,-1.3120,-9.8617,0.1221,0.3198,-0.0906,-0.0258
18609,-1.2546,-9.8617,0.1269,0.3277,-0.0901,-0.0253
18617,-1.2450,-9.8952,0.1700,0.3381,-0.0933,-0.0250
18625,-1.2665,-9.8737,0.1628,0.3480,-0.0917,-0.0232
18633,-1.2905,-9.8761,0.1867,0.3560,-0.0954,-0.0272
18641,-1.3144,-9.9264,0.1389,0.3624,-0.0933,-0.0218
18649,-1.3168,-9.9120,0.2035,0.3720,-0.0986,-0.0218
18657,-1.2594,-9.9838,0.2059,0.3794,-0.0986,-0.0232
18665,-1.2785,-9.9264,0.0694,0.3866,-0.1007,-0.0240
18673,-1.2426,-9.9958,0.1844,0.3960,-0.1039,-0.0213
18681,-1.2737,-9.9359,0.1389,0.4032,-0.0981,-0.0205
18689,-1.2689,-9.9647,0.1748,0.4082,-0.1026,-0.0187
18697,-1.2857,-9.9383,0.0814,0.4183,-0.0989,-0.0189
18705,-1.2354,-10.0102,0.1269,0.4261,-0.0975,-0.0181
18713,-1.2881,-9.9982,0.1867,0.4287,-0.0994,-0.0171
18721,-1.2665,-10.0149,0.0742,0.4367,-0.1013,-0.0184
18729,-1.2546,-9.9311,0.1628,0.4429,-0.0967,-0.0203
