Timestamp,AccelX,AccelY,AccelZ,GyroX,GyroY,GyroZ
407,-0.7518,-9.5146,-2.8323,0.0165,-0.0152,0.0144
414,-0.6440,-9.4044,-2.6743,0.0211,-0.0253,0.0048
422,-0.6512,-9.4188,-2.6432,0.0293,-0.0405,0.0080
431,-0.6033,-9.3757,-2.8946,0.0301,-0.0378,0.0160
438,-0.6560,-9.3757,-2.9592,0.0272,-0.0032,0.0306
446,-0.7781,-9.3996,-3.0646,0.0128,0.0245,0.0485
454,-0.8164,-9.3733,-2.9401,0.0083,0.0360,0.0690
462,-0.8212,-9.3925,-3.0335,-0.0008,0.0448,0.0741
471,-0.7853,-9.4571,-2.9137,0.0005,0.0530,0.0685
479,-0.7733,-9.4810,-2.8060,-0.0005,0.0373,0.0512
486,-0.7805,-9.4475,-2.7150,0.0027,0.0072,0.0357
494,-0.7661,-9.4930,-2.7414,0.0099,-0.0309,0.0189
502,-0.8140,-9.5385,-2.7869,0.0184,-0.0488,-0.0037
510,-0.6895,-9.5170,-2.8036,0.0285,-0.0576,-0.0256
519,-0.7254,-9.4020,-2.8826,0.0245,-0.0765,-0.0261
526,-0.6297,-9.2943,-2.9161,0.0184,-0.0791,-0.0032
534,-0.6704,-9.4715,-2.9042,0.0152,-0.0517,0.0181
542,-0.5507,-9.5193,-2.9449,0.0109,-0.0184,0.0312
550,-0.6560,-9.4332,-2.9018,0.0011,0.0131,0.0440
559,-0.6584,-9.5505,-2.7892,-0.0032,0.0226,0.0570
567,-0.6536,-9.4930,-2.8204,-0.0053,0.0189,0.0645
574,-0.6369,-9.5672,-2.7964,-0.0048,0.0083,0.0597
582,-0.6345,-9.5505,-2.8060,-0.0072,-0.0008,0.0493
590,-0.6895,-9.5433,-2.7270,-0.0056,-0.0040,0.0354
599,-0.6943,-9.4547,-2.8323,-0.0043,-0.0131,0.0237
607,-0.7087,-9.4978,-2.7509,-0.0037,-0.0234,0.0131
614,-0.5626,-9.5481,-2.7581,-0.0027,-0.0304,0.0019
622,-0.6369,-9.5744,-2.8898,-0.0053,-0.0256,0.0048
630,-0.6943,-9.4954,-2.8970,-0.0040,0.0136,0.0248
638,-0.7781,-9.4571,-2.8802,-0.0029,0.0592,0.0552
647,-0.7781,-9.5385,-2.8539,-0.0056,0.0850,0.0725
655,-0.8667,-9.4140,-2.8108,-0.0005,0.0890,0.0821
662,-0.8428,-9.4188,-2.7485,-0.0043,0.0666,0.0823
670,-0.9433,-9.4499,-2.7150,-0.0019,0.0261,0.0671
678,-0.8906,-9.4667,-2.7701,-0.0021,-0.0021,0.0402
687,-0.9146,-9.4810,-2.7892,0.0000,-0.0384,0.0101
695,-0.8404,-9.4595,-2.8347,0.0011,-0.0751,-0.0045
702,-0.7949,-9.4643,-2.8946,0.0019,-0.0978,-0.0061
710,-0.8882,-9.4308,-2.8874,-0.0075,-0.0901,-0.0024
718,-0.8092,-9.4691,-2.9808,-0.0083,-0.0650,0.0155
727,-0.8021,-9.4379,-2.8826,-0.0040,-0.0461,0.0285
735,-0.6608,-9.4547,-2.8754,-0.0048,-0.0341,0.0437
743,-0.5363,-9.5505,-2.8347,-0.0043,-0.0179,0.0466
750,-0.5243,-9.4427,-2.8946,-0.0032,-0.0037,0.0456
758,-0.5578,-9.4810,-2.8970,0.0019,0.0064,0.0477
766,-0.6273,-9.5505,-2.9281,0.0056,0.0240,0.0501
775,-0.6369,-9.5337,-2.7629,0.0077,0.0237,0.0440
783,-0.6033,-9.4667,-2.7749,0.0131,-0.0096,0.0298
790,-0.5818,-9.5170,-3.0143,0.0168,-0.0442,0.0043
798,-0.6393,-9.4451,-2.8491,0.0163,-0.0434,-0.0149
806,-0.7925,-9.4164,-3.0765,0.0152,-0.0341,-0.0101
815,-0.7973,-9.3613,-2.9856,0.0051,-0.0466,-0.0021
823,-0.6440,-9.4164,-2.9377,0.0085,-0.0626,0.0067
831,-0.5267,-9.4308,-2.8563,0.0104,-0.0546,0.0075
838,-0.4190,-9.3972,-2.8204,0.0125,-0.0445,0.0008
846,-0.6823,-9.4140,-2.8060,0.0091,-0.0248,0.0096
855,-0.6608,-9.3996,-2.8659,0.0032,-0.0248,0.0314
863,-0.6369,-9.4260,-2.8754,0.0029,-0.0133,0.0469
871,-0.7015,-9.5912,-2.7701,0.0077,0.0101,0.0509
878,-0.6656,-9.6414,-2.7773,0.0131,0.0250,0.0480
886,-0.6464,-9.5888,-2.7198,0.0125,0.0107,0.0365
894,-0.7374,-9.5720,-2.7150,0.0112,-0.0131,0.0344
903,-0.7566,-9.5098,-2.7294,0.0061,-0.0293,0.0336
911,-0.7685,-9.5050,-2.8180,-0.0003,-0.0490,0.0381
919,-0.7159,-9.5146,-2.7438,-0.0021,-0.0687,0.0352
926,-0.6704,-9.5600,-2.6240,-0.0048,-0.0719,0.0338
934,-0.4262,-9.5744,-2.6097,-0.0019,-0.0613,0.0386
943,-0.3663,-9.6606,-2.6288,0.0003,-0.0450,0.0346
951,-0.3424,-9.6630,-2.7438,0.0115,0.0040,0.0245
959,-0.4956,-9.5888,-2.8778,0.0149,0.0501,0.0256
966,-0.6800,-9.5170,-2.8754,0.0197,0.0794,0.0325
974,-0.7326,-9.5193,-2.9018,0.0163,0.0957,0.0320
983,-0.7949,-9.4379,-2.8778,0.0163,0.0725,0.0301
991,-0.7997,-9.4068,-2.9305,0.0099,0.0253,0.0221
999,-0.8332,-9.4619,-2.9592,-0.0032,-0.0139,0.0152
1007,-0.7326,-9.4786,-2.9257,-0.0083,-0.0344,0.0152
1014,-0.6057,-9.4547,-2.7869,-0.0107,-0.0397,0.0245
1022,-0.4477,-9.5361,-2.8084,-0.0061,-0.0469,0.0258
1031,-0.4022,-9.5600,-2.8754,0.0019,-0.0317,0.0149
1039,-0.4932,-9.4332,-2.8754,0.0064,0.0032,-0.0021
1047,-0.6512,-9.4044,-2.8036,0.0147,0.0285,-0.0013
1054,-0.7566,-9.3925,-2.7629,0.0232,0.0288,-0.0013
1062,-0.8763,-9.4379,-2.7749,0.0258,0.0187,-0.0027
1071,-1.0582,-9.4403,-2.7988,0.0226,-0.0032,0.0048
1079,-0.9984,-9.3541,-2.8874,0.0133,-0.0304,0.0123
1087,-0.8787,-9.4308,-2.9305,0.0061,-0.0458,0.0237
1094,-0.8021,-9.5840,-2.8994,0.0083,-0.0442,0.0195
1102,-0.7039,-9.5600,-2.8467,0.0152,-0.0418,0.0024
1111,-0.6105,-9.5744,-2.8922,0.0229,-0.0552,-0.0027
1119,-0.7063,-9.4739,-2.9281,0.0242,-0.0650,0.0000
1127,-0.7111,-9.4930,-2.8922,0.0264,-0.0365,0.0027
1135,-0.7973,-9.5122,-2.8635,0.0322,-0.0053,0.0109
1142,-0.9385,-9.4595,-2.8204,0.0325,0.0125,0.0184
1150,-1.0032,-9.4092,-2.8156,0.0301,0.0325,0.0296
1159,-0.9720,-9.3637,-2.7892,0.0176,0.0330,0.0397
1167,-0.9744,-9.3829,-2.7485,0.0072,-0.0072,0.0392
1175,-0.8523,-9.3901,-2.7821,0.0048,-0.0378,0.0328
1182,-0.6991,-9.4954,-2.7653,-0.0035,-0.0589,0.0258
1190,-0.6488,-9.5577,-2.7869,-0.0069,-0.0693,0.0272
1199,-0.6009,-9.5553,-2.8395,-0.0045,-0.0557,0.0312
1207,-0.5411,-9.5768,-2.7701,0.0032,-0.0290,0.0378
1215,-0.5363,-9.6630,-2.5187,0.0168,-0.0112,0.0450
1223,-0.4573,-9.6295,-2.7557,0.0173,0.0059,0.0373
1230,-0.5004,-9.5792,-2.6671,0.0131,0.0234,0.0288
1239,-0.6584,-9.6151,-2.6360,0.0131,0.0381,0.0312
1247,-0.7973,-9.5457,-2.5187,0.0099,0.0408,0.0386
1255,-0.8260,-9.5122,-2.5905,-0.0051,0.0109,0.0570
1263,-0.7015,-9.5768,-2.5187,-0.0085,-0.0301,0.0703
1270,-0.6033,-9.5481,-2.7581,-0.0069,-0.0442,0.0709
1278,-0.5100,-9.4619,-2.9257,-0.0056,-0.0237,0.0674
1287,-0.5411,-9.5002,-2.9521,-0.0061,0.0019,0.0640
1295,-0.6440,-9.5265,-2.9760,-0.0088,0.0072,0.0613
1303,-0.6249,-9.6558,-2.8874,-0.0072,0.0013,0.0474
1311,-0.5387,-9.6367,-2.9233,-0.0045,0.0099,0.0394
1318,-0.4645,-9.5624,-2.8778,-0.0003,0.0232,0.0338
1327,-0.4669,-9.5600,-2.9090,0.0032,0.0333,0.0314
1335,-0.5124,-9.5553,-2.8563,0.0077,0.0370,0.0290
1343,-0.5962,-9.5409,-2.9951,0.0109,0.0448,0.0256
1351,-0.5698,-9.4427,-2.9449,0.0115,0.0400,0.0240
1358,-0.6105,-9.4715,-3.0502,0.0024,0.0280,0.0272
1367,-0.5986,-9.5146,-3.2226,-0.0032,0.0336,0.0266
1375,-0.7877,-9.4427,-3.3758,-0.0088,0.0610,0.0304
1383,-1.0151,-9.3134,-3.2226,-0.0237,0.0890,0.0554
1391,-1.0630,-9.3733,-3.1268,-0.0277,0.0943,0.0826
1399,-1.0630,-9.3470,-2.9592,-0.0280,0.0762,0.0989
1406,-0.8763,-9.3733,-2.8419,-0.0211,0.0464,0.0885
1415,-0.7159,-9.3901,-2.7773,-0.0059,0.0123,0.0592
1423,-0.6273,-9.3996,-2.7605,0.0059,-0.0298,0.0176
1431,-0.7302,-9.3853,-2.8252,0.0139,-0.0831,-0.0128
1439,-0.6632,-9.4667,-3.0215,0.0131,-0.1047,-0.0179
1446,-0.6393,-9.5050,-2.9808,0.0120,-0.0802,-0.0144
1455,-0.7039,-9.4954,-3.2489,0.0123,-0.0277,0.0093
1463,-0.8499,-9.4475,-3.1556,0.0144,0.0368,0.0370
1471,-0.8715,-9.3829,-3.1220,0.0192,0.0845,0.0504
1479,-0.9122,-9.3158,-2.8970,0.0221,0.0858,0.0576
1487,-0.8619,-9.2009,-2.8156,0.0221,0.0570,0.0472
1495,-0.7685,-9.2105,-2.8467,0.0109,0.0080,0.0370
1503,-0.8428,-9.2512,-2.8970,0.0072,-0.0288,0.0232
1511,-0.9050,-9.4212,-2.8994,0.0061,-0.0469,0.0136
1519,-0.8092,-9.4475,-2.7940,0.0003,-0.0570,0.0059
1527,-0.7087,-9.4547,-2.7366,-0.0064,-0.0799,0.0128
1534,-0.6105,-9.4978,-2.8036,-0.0069,-0.0645,0.0179
1543,-0.5507,-9.6007,-2.7198,0.0040,-0.0253,0.0224
1551,-0.5555,-9.6654,-2.6863,0.0093,-0.0045,0.0149
1559,-0.6895,-9.5409,-2.5738,0.0181,-0.0032,0.0144
1567,-0.7781,-9.4882,-2.5881,0.0245,-0.0147,0.0189
1575,-0.7278,-9.5529,-2.5594,0.0285,-0.0171,0.0200
1583,-0.7614,-9.5193,-2.6983,0.0264,-0.0037,0.0187
1591,-0.7566,-9.4810,-2.6264,0.0301,0.0040,0.0211
1599,-0.8332,-9.4978,-2.7174,0.0224,0.0067,0.0203
1607,-0.8811,-9.4906,-2.6624,0.0123,-0.0043,0.0232
1615,-0.9266,-9.5122,-2.6576,-0.0019,-0.0261,0.0309
1623,-0.8260,-9.4547,-2.4780,-0.0045,-0.0525,0.0349
1631,-0.7230,-9.5840,-2.3798,0.0053,-0.0853,0.0418
1639,-0.5626,-9.5960,-2.4541,0.0192,-0.0922,0.0322
1647,-0.4549,-9.6606,-2.5331,0.0218,-0.0831,0.0197
1655,-0.4836,-9.7013,-2.5714,0.0253,-0.0695,0.0131
1664,-0.5100,-9.5481,-2.5211,0.0325,-0.0394,0.0155
1671,-0.5794,-9.6295,-2.6815,0.0336,-0.0203,0.0216
1679,-0.5914,-9.5146,-2.7725,0.0261,0.0005,0.0211
1687,-0.6560,-9.5122,-2.7845,0.0168,0.0171,0.0344
1695,-0.7135,-9.4475,-2.7701,0.0109,0.0306,0.0450
1703,-0.5986,-9.4284,-2.7054,0.0045,0.0320,0.0453
1711,-0.5650,-9.4954,-2.7270,0.0032,0.0171,0.0338
1719,-0.4286,-9.5624,-2.7461,0.0083,0.0115,0.0171
1727,-0.4693,-9.5050,-2.9449,0.0051,0.0112,-0.0096
1735,-0.4238,-9.5481,-2.9113,0.0016,0.0099,-0.0205
1743,-0.3591,-9.6654,-3.0263,-0.0157,0.0322,-0.0298
1751,-0.5507,-9.4691,-2.7270,-0.0067,0.0815,-0.0261
1759,-0.8092,-9.5026,-2.7342,0.0000,0.0714,-0.0048
1767,-0.8164,-9.5050,-2.8491,-0.0056,0.0613,0.0152
1775,-0.7733,-9.4978,-2.8491,-0.0211,0.0653,0.0152
1783,-0.8499,-9.5289,-2.8946,-0.0274,0.0757,0.0218
1792,-0.7757,-9.4595,-2.8587,-0.0352,0.0957,0.0312
1799,-0.7685,-9.4451,-2.6432,-0.0296,0.0925,0.0453
1807,-0.8835,-9.3829,-2.5067,-0.0181,0.0496,0.0568
1815,-0.8978,-9.4092,-2.5259,-0.0099,0.0045,0.0586
1823,-0.7063,-9.3781,-2.7390,-0.0101,-0.0173,0.0573
1831,-0.6632,-9.4284,-2.7988,-0.0091,-0.0280,0.0480
1839,-0.5986,-9.5122,-2.8706,-0.0091,-0.0282,0.0493
1847,-0.5171,-9.5026,-2.9640,-0.0088,-0.0045,0.0488
1855,-0.5363,-9.4954,-2.8946,0.0037,0.0250,0.0490
1863,-0.5195,-9.4236,-2.9856,0.0027,0.0536,0.0568
1871,-0.5411,-9.3781,-3.0837,-0.0043,0.0602,0.0573
1880,-0.6081,-9.4140,-2.8539,-0.0048,0.0509,0.0506
1887,-0.6081,-9.5098,-2.9521,-0.0029,0.0192,0.0314
1895,-0.7039,-9.4332,-2.7797,0.0005,-0.0258,0.0205
1903,-0.6033,-9.4188,-2.7940,-0.0045,-0.0706,0.0211
1911,-0.5171,-9.4834,-2.6671,0.0088,-0.0773,0.0272
1920,-0.2083,-9.6175,-2.6312,0.0147,-0.0658,0.0104
1927,-0.2442,-9.6750,-2.8443,0.0104,-0.0682,-0.0072
1935,-0.3208,-9.6007,-2.7773,0.0067,-0.0509,-0.0045
1943,-0.5363,-9.5409,-2.7007,0.0314,-0.0080,-0.0011
1951,-0.3831,-9.5840,-2.9281,0.0253,0.0128,0.0053
1959,-0.4190,-9.5026,-2.9090,0.0155,0.0213,-0.0005
1968,-0.5076,-9.4044,-3.0023,0.0016,0.0445,0.0032
1975,-0.5986,-9.4284,-2.9473,-0.0125,0.0528,0.0184
1983,-0.7446,-9.5600,-2.9353,-0.0211,0.0746,0.0237
1991,-0.8811,-9.4499,-2.7078,-0.0197,0.0754,0.0245
1999,-0.8428,-9.4284,-2.8132,-0.0232,0.0554,0.0237
2008,-0.8571,-9.3685,-2.7701,-0.0213,0.0173,0.0173
2015,-0.7733,-9.5433,-2.5690,-0.0053,-0.0171,0.0136
2023,-0.6105,-9.6367,-2.6408,0.0157,-0.0488,-0.0099
2031,-0.6225,-9.5864,-2.8012,0.0277,-0.0677,-0.0330
2039,-0.6656,-9.5289,-2.8323,0.0288,-0.0538,-0.0296
2048,-0.5602,-9.5385,-2.8204,0.0285,-0.0256,-0.0144
2056,-0.5411,-9.5696,-2.9377,0.0218,-0.0088,-0.0013
2063,-0.4693,-9.5098,-2.8467,0.0218,0.0131,0.0053
2071,-0.6800,-9.4739,-2.8467,0.0179,0.0349,0.0115
2079,-0.8428,-9.4308,-2.7102,0.0125,0.0408,0.0328
2087,-0.8332,-9.4260,-2.7294,0.0149,0.0304,0.0440
2096,-0.6536,-9.5146,-2.6073,0.0237,0.0075,0.0328
2103,-0.5171,-9.4763,-2.5666,0.0240,-0.0213,0.0091
2111,-0.5650,-9.5672,-2.6552,0.0344,-0.0474,-0.0112
2119,-0.7015,-9.5217,-2.7198,0.0418,-0.0386,-0.0208
2127,-0.8380,-9.4643,-2.7414,0.0472,-0.0125,-0.0277
2136,-0.7949,-9.4379,-2.8132,0.0546,-0.0139,-0.0245
2144,-0.8380,-9.4116,-2.8204,0.0600,-0.0189,-0.0216
2151,-0.7374,-9.4691,-2.9808,0.0698,-0.0147,-0.0330
2159,-0.6273,-9.5098,-2.8108,0.0671,-0.0298,-0.0488
2167,-0.6009,-9.5289,-2.8611,0.0719,-0.0354,-0.0456
2176,-0.5459,-9.6750,-3.0191,0.0640,-0.0131,-0.0394
2184,-0.5267,-9.5624,-2.9999,0.0562,0.0533,-0.0408
2191,-0.5578,-9.6199,-2.7605,0.0770,0.0789,-0.0232
2199,-0.6009,-9.5888,-2.6145,0.0709,0.1026,-0.0059
2207,-0.2777,-9.5385,-2.8946,0.0416,0.1244,-0.0120
2215,-0.5004,-9.5553,-3.1723,0.0229,0.1514,0.0043
2224,-0.2729,-9.6774,-3.0263,0.0325,0.2356,0.0045
2232,-0.6871,-9.2943,-2.6073,0.0322,0.2228,0.0069
2239,-1.3192,-9.2751,-1.9178,0.0637,0.0714,0.0805
2247,-0.5148,-9.5553,-2.2362,0.0858,-0.0605,0.0829
2255,-0.1460,-9.6199,-2.6432,0.0616,-0.1426,0.0320
2264,-0.2777,-9.4595,-2.9042,0.0365,-0.1418,0.0099
2272,-0.3424,-9.4571,-2.8323,0.0264,-0.1066,0.0029
2279,-0.3879,-9.6271,-2.7102,0.0234,-0.0741,0.0067
2287,-0.3208,-9.6678,-2.6480,0.0368,-0.0682,0.0029
2295,-0.3376,-9.6391,-2.8730,0.0394,-0.0274,-0.0173
2304,-0.3280,-9.6223,-2.7605,0.0341,0.0362,-0.0229
2312,-0.4477,-9.6295,-2.7581,0.0522,0.0895,-0.0136
2320,-0.5794,-9.5361,-2.8587,0.0663,0.1330,-0.0147
2327,-0.9697,-9.2703,-2.8036,0.0722,0.1268,0.0069
2335,-0.9984,-9.3948,-2.6217,0.0674,0.0480,0.0581
2343,-0.8260,-9.4763,-2.6480,0.0714,0.0232,0.0823
2352,-0.6225,-9.4810,-2.8323,0.0509,0.0413,0.0714
2360,-0.4501,-9.5624,-2.8587,0.0112,0.0453,0.0408
2367,-0.6895,-9.5624,-2.9808,-0.0192,0.0277,0.0301
2375,-0.8380,-9.5457,-2.9042,-0.0381,0.0554,0.0368
2383,-1.1205,-9.5481,-2.7533,-0.0775,0.0250,0.0557
2392,-0.8068,-9.5720,-2.6217,-0.0869,0.0141,0.0616
2400,-0.6009,-9.6462,-2.5881,-0.0714,0.0067,0.0418
2407,-0.3376,-9.9144,-3.0023,-0.0706,0.0173,-0.0149
2415,-0.6105,-9.5026,-2.7653,-0.0562,0.0581,-0.0608
2423,-0.9098,-9.3733,-2.8036,-0.0474,0.0362,-0.0725
2432,-1.1516,-9.3302,-2.6384,-0.0410,-0.0394,-0.0445
2440,-0.8739,-9.2895,-2.7054,-0.0461,-0.1092,-0.0322
2448,-0.6512,-9.3278,-3.0119,-0.0626,-0.1455,-0.0277
2455,-0.5052,-9.3805,-2.8994,-0.0765,-0.1356,-0.0096
2463,-0.2729,-9.5265,-2.9521,-0.0762,-0.0847,0.0032
2471,-0.2993,-9.6941,-2.8347,-0.0730,-0.0245,0.0224
2480,-0.2083,-9.7564,-2.8659,-0.0509,0.0464,0.0354
2488,-0.1820,-9.7444,-2.7821,-0.0322,0.1031,0.0245
2495,-0.4142,-9.6486,-2.7438,-0.0128,0.1471,0.0155
2503,-0.4645,-9.5888,-2.6217,0.0000,0.1551,0.0091
2511,-0.6321,-9.5624,-2.5953,0.0048,0.1114,0.0003
2520,-0.8356,-9.4355,-2.7078,0.0056,0.0338,-0.0008
2528,-0.8619,-9.3039,-2.7940,-0.0072,-0.0306,0.0120
2536,-0.7949,-9.2344,-2.7653,-0.0176,-0.0845,0.0258
2543,-0.4381,-9.2344,-2.9257,-0.0160,-0.1055,0.0373
2551,-0.3232,-9.3254,-3.0957,-0.0187,-0.0765,0.0344
2560,-0.3065,-9.3446,-2.8946,-0.0245,-0.0277,0.0245
2568,-0.4980,-9.3518,-2.9592,-0.0360,-0.0019,0.0352
2576,-0.8068,-9.4571,-2.9521,-0.0405,0.0208,0.0618
2583,-0.7207,-9.5720,-2.8180,-0.0290,0.0282,0.0818
2591,-0.5507,-9.6271,-2.6025,-0.0240,0.0250,0.0789
2599,-0.3160,-9.6175,-2.5977,-0.0168,-0.0072,0.0637
2608,-0.2370,-9.6438,-2.6001,-0.0043,-0.0200,0.0464
2616,-0.2155,-9.7037,-2.6456,0.0109,-0.0288,0.0357
2624,-0.1987,-9.6558,-2.6528,0.0195,-0.0237,0.0205
2631,-0.1748,-9.5337,-2.5594,0.0304,-0.0466,0.0019
2639,-0.2322,-9.4954,-2.7438,0.0245,-0.0837,-0.0024
2648,-0.2370,-9.5122,-2.8754,0.0189,-0.0919,0.0056
2656,-0.2131,-9.5050,-2.8587,0.0147,-0.0538,0.0120
2664,-0.2322,-9.4667,-2.7366,0.0128,-0.0048,0.0168
2671,-0.2921,-9.4715,-2.8395,0.0067,0.0179,0.0149
2679,-0.2897,-9.4906,-2.7366,-0.0005,0.0205,0.0149
2688,-0.3328,-9.4882,-2.8467,-0.0048,0.0429,0.0195
2696,-0.4286,-9.4451,-2.8491,-0.0075,0.0770,0.0341
2704,-0.4453,-9.6223,-2.8539,-0.0072,0.0981,0.0349
2712,-0.4956,-9.6103,-2.8395,-0.0011,0.0986,0.0224
2719,-0.5124,-9.6534,-2.6743,0.0083,0.0746,0.0053
2727,-0.4381,-9.5984,-2.6911,0.0157,0.0437,-0.0200
2736,-0.3807,-9.5433,-2.6959,0.0200,0.0016,-0.0541
2744,-0.5770,-9.4954,-2.6121,0.0213,-0.0480,-0.0618
2752,-0.6871,-9.4355,-2.7078,0.0245,-0.0773,-0.0530
2759,-0.5507,-9.4499,-2.6480,0.0221,-0.0877,-0.0461
2767,-0.5411,-9.4810,-2.7797,0.0160,-0.0885,-0.0256
2776,-0.6416,-9.5146,-2.9544,0.0016,-0.0802,-0.0064
2784,-0.5650,-9.3901,-2.8371,-0.0165,-0.0530,0.0200
2792,-0.6321,-9.5026,-2.8036,-0.0328,-0.0250,0.0533
2800,-0.5100,-9.5840,-2.6791,-0.0261,0.0016,0.0714
2807,-0.4645,-9.6199,-2.6552,-0.0245,0.0277,0.0661
2816,-0.4669,-9.6295,-2.7198,-0.0187,0.0304,0.0584
2824,-0.5004,-9.5313,-2.6671,-0.0240,0.0067,0.0424
2832,-0.6009,-9.4547,-2.6121,-0.0373,-0.0264,0.0296
2840,-0.7350,-9.5409,-2.6528,-0.0464,-0.0650,0.0189
2847,-0.7159,-9.6271,-2.4995,-0.0450,-0.1103,0.0195
2855,-0.9194,-9.5122,-2.4349,-0.0450,-0.1196,0.0179
2864,-1.4557,-9.3589,-2.3080,-0.0698,-0.2017,0.0466
2872,-1.5347,-9.3446,-2.3128,-0.1103,-0.3611,0.0829
2880,-1.4293,-9.3541,-2.4924,-0.1503,-0.5263,0.1018
2888,-1.5012,-9.2823,-2.5355,-0.1580,-0.6091,0.1223
2895,-1.3024,-9.1530,-2.2577,-0.1215,-0.6515,0.1687
2904,-1.0032,-9.2392,-2.3918,-0.0807,-0.6744,0.2084
2912,-0.9122,-9.2464,-2.5187,-0.0306,-0.6435,0.2611
2920,-0.8547,-9.2799,-2.3511,0.0466,-0.5484,0.3293
2928,-0.3448,-9.6391,-2.3535,0.0994,-0.4437,0.3675
2935,0.2394,-9.9072,-2.1021,0.1263,-0.3304,0.3717
2944,-2.1093,-10.0126,-2.6743,-0.0216,-0.1948,0.4932
2952,-2.2338,-9.3446,-1.7597,-0.2731,-0.1053,0.7269
2960,-2.0231,-9.4236,-0.9649,-0.5063,-0.0797,0.8532
2968,-1.8004,-9.5433,0.0383,-0.5905,-0.0941,0.9497
2975,-1.4174,-9.4188,0.5674,-0.5609,-0.1564,0.9851
2983,-0.8452,-9.0668,0.7781,-0.4530,-0.2081,0.9366
2992,-0.8260,-8.7364,0.9218,-0.3179,-0.2579,0.8503
3000,-0.8332,-8.6646,0.9577,-0.1617,-0.3006,0.7562
3008,-0.7039,-8.7580,1.0391,-0.0016,-0.3469,0.6427
3016,-0.7757,-9.1937,0.9960,0.1556,-0.3922,0.5260
3023,-0.8068,-9.5864,0.9744,0.2875,-0.4698,0.4032
3032,-0.9122,-9.9311,0.6416,0.3893,-0.5231,0.2854
3040,-1.0295,-10.1538,0.3112,0.4541,-0.5492,0.1831
3048,-1.2665,-10.2544,0.1077,0.4770,-0.5231,0.1090
3056,-1.3671,-10.2280,0.1700,0.4711,-0.4839,0.0695
3063,-1.5610,-10.1299,0.1030,0.4626,-0.4410,0.0576
3072,-1.5826,-9.9359,0.1245,0.4628,-0.4178,0.0626
3080,-1.5897,-9.8019,0.3472,0.4842,-0.4319,0.0711
3088,-1.5155,-9.6103,0.3663,0.5191,-0.4429,0.0789
3096,-1.4772,-9.3613,0.3304,0.5558,-0.4439,0.0898
3104,-1.4150,-9.2703,0.1796,0.5838,-0.4309,0.0927
3111,-1.3192,-9.3948,0.1149,0.6030,-0.4146,0.0847
3120,-1.3671,-9.5960,0.0718,0.6121,-0.3901,0.0629
3128,-1.2881,-9.8521,0.0694,0.6278,-0.3595,0.0338
3136,-1.3575,-10.0078,0.0766,0.6270,-0.3280,0.0003
3144,-1.4222,-10.1993,0.1149,0.6238,-0.2912,-0.0293
3151,-1.3862,-10.3094,0.1245,0.6273,-0.2571,-0.0618
3160,-1.3575,-10.3382,0.2658,0.6427,-0.2321,-0.0954
3168,-1.3408,-10.3669,0.3256,0.6779,-0.2196,-0.1396
3176,-1.2641,-10.3214,0.4429,0.7344,-0.2116,-0.1945
3184,-1.3168,-10.2113,0.6321,0.8108,-0.2132,-0.2505
3192,-1.3575,-10.2807,0.4262,0.8839,-0.2204,-0.2990
3200,-1.4700,-10.2544,0.4932,0.9531,-0.2308,-0.3304
3208,-1.5945,-10.2615,0.3711,1.0144,-0.2427,-0.3411
3216,-1.7310,-10.3310,0.3591,1.0576,-0.2494,-0.3363
3224,-1.7382,-10.3501,0.2777,1.0933,-0.2603,-0.3166
3232,-1.8531,-10.3717,0.1748,1.1032,-0.2694,-0.2771
3239,-1.9393,-10.3837,0.0287,1.0973,-0.2787,-0.2206
3248,-1.9896,-10.3884,-0.0407,1.0725,-0.2880,-0.1490
3256,-1.9824,-10.3669,-0.0287,1.0429,-0.2875,-0.0701
3264,-2.0590,-10.4196,0.0024,1.0070,-0.2832,0.0133
3272,-1.9441,-10.4603,-0.0335,0.9723,-0.2835,0.0866
3280,-1.8579,-10.4148,0.0766,0.9478,-0.2864,0.1426
3288,-1.8435,-10.4938,0.1317,0.9340,-0.2971,0.1887
3296,-1.7358,-10.5153,0.1197,0.9300,-0.2984,0.2217
3304,-1.6927,-10.5943,0.1341,0.9321,-0.3035,0.2388
3312,-1.6664,-10.6087,0.1245,0.9403,-0.3091,0.2569
3320,-1.6424,-10.7428,0.2227,0.9537,-0.3112,0.2558
3328,-1.5227,-10.8362,0.2011,0.9689,-0.3155,0.2505
3336,-1.5897,-10.8673,0.2322,0.9936,-0.3166,0.2406
3344,-1.6305,-10.8697,0.2849,1.0099,-0.3131,0.2318
3352,-1.6712,-10.9319,0.2227,1.0198,-0.3075,0.2201
3360,-1.6257,-10.8505,0.1317,1.0280,-0.3022,0.2073
3368,-1.5969,-10.8840,0.1796,1.0325,-0.2960,0.1977
3376,-1.5083,-10.8697,0.1341,1.0408,-0.2870,0.1793
3384,-1.5945,-10.8553,0.0790,1.0403,-0.2785,0.1620
3392,-1.5538,-10.8218,0.0646,1.0411,-0.2563,0.1466
3400,-1.5850,-10.8816,0.0120,1.0355,-0.2417,0.1300
3408,-1.5371,-10.9104,0.1460,1.0256,-0.2222,0.1132
3416,-1.4796,-10.8362,0.0215,1.0192,-0.2057,0.0986
3424,-1.5012,-10.8457,0.1149,1.0046,-0.1863,0.0789
3432,-1.4796,-10.9008,0.0455,0.9979,-0.1711,0.0512
3440,-1.5227,-10.8864,0.0551,0.9902,-0.1532,0.0208
3448,-1.4317,-10.8936,0.1556,0.9907,-0.1396,-0.0139
3457,-1.4222,-10.8122,0.1580,0.9995,-0.1284,-0.0512
3464,-1.3767,-10.8745,0.2370,1.0040,-0.1228,-0.0959
3472,-1.4581,-10.8170,0.1772,1.0224,-0.1220,-0.1383
3480,-1.4581,-10.7955,0.1987,1.0365,-0.1202,-0.1737
3488,-1.5467,-10.7619,0.2394,1.0477,-0.1220,-0.1988
3496,-1.5897,-10.7763,0.0742,1.0528,-0.1306,-0.2140
3504,-1.6113,-10.7763,0.1006,1.0483,-0.1330,-0.2222
3512,-1.6855,-10.7284,0.1101,1.0424,-0.1439,-0.2196
3520,-1.7166,-10.7284,0.0718,1.0333,-0.1508,-0.2076
3528,-1.7502,-10.5848,0.0072,1.0174,-0.1599,-0.1921
3536,-1.7310,-10.5656,0.0479,0.9952,-0.1740,-0.1719
3545,-1.7214,-10.4794,0.0766,0.9766,-0.1844,-0.1455
3552,-1.7334,-10.4770,0.0407,0.9510,-0.2022,-0.1151
3560,-1.7382,-10.4315,0.0431,0.9254,-0.2148,-0.0858
3568,-1.7478,-10.3980,0.0527,0.9028,-0.2337,-0.0586
3576,-1.7621,-10.3046,0.0814,0.8820,-0.2526,-0.0264
3585,-1.7502,-10.2544,0.1293,0.8599,-0.2689,0.0005
3592,-1.7166,-10.2927,0.1101,0.8364,-0.2840,0.0250
3600,-1.6831,-10.2376,0.0862,0.8170,-0.3016,0.0501
3608,-1.7238,-10.1849,0.0766,0.7954,-0.3198,0.0666
3616,-1.6879,-10.2352,0.0982,0.7754,-0.3336,0.0882
3624,-1.6328,-10.1275,0.0359,0.7554,-0.3475,0.1042
3633,-1.6544,-10.1179,0.1293,0.7317,-0.3592,0.1143
3640,-1.6113,-10.0916,0.1006,0.7139,-0.3722,0.1252
3648,-1.6233,-10.1227,0.0120,0.6912,-0.3773,0.1362
3656,-1.6281,-10.0413,0.1006,0.6694,-0.3832,0.1434
3664,-1.5562,-10.0054,-0.0120,0.6494,-0.3893,0.1506
3673,-1.5395,-9.9407,0.0192,0.6187,-0.3840,0.1537
3680,-1.5107,-9.9479,0.0431,0.5961,-0.3845,0.1561
3688,-1.5083,-9.9048,-0.0311,0.5684,-0.3728,0.1551
3696,-1.4940,-9.8976,0.0383,0.5415,-0.3696,0.1466
3704,-1.4246,-9.8881,-0.0120,0.5172,-0.3608,0.1404
3713,-1.3862,-9.8090,0.0144,0.4914,-0.3475,0.1335
3721,-1.4126,-9.8450,0.0263,0.4663,-0.3344,0.1183
3728,-1.4629,-9.7899,-0.0024,0.4391,-0.3192,0.1013
3736,-1.3886,-9.7444,-0.0790,0.4194,-0.3064,0.0823
3744,-1.3671,-9.6678,-0.0144,0.3965,-0.2870,0.0578
3752,-1.3120,-9.6869,-0.0335,0.3786,-0.2697,0.0328
3761,-1.2953,-9.5912,-0.0048,0.3608,-0.2507,0.0088
3768,-1.3144,-9.6774,0.0479,0.3392,-0.2308,-0.0187
3776,-1.3551,-9.6630,0.0335,0.3259,-0.2172,-0.0469
3784,-1.3599,-9.5960,-0.0048,0.3083,-0.1969,-0.0746
3792,-1.3216,-9.5409,0.0359,0.2846,-0.1796,-0.0959
3801,-1.3455,-9.4691,0.0335,0.2641,-0.1580,-0.1124
3808,-1.3886,-9.5361,0.0958,0.2454,-0.1466,-0.1263
3816,-1.4724,-9.4786,0.0694,0.2230,-0.1343,-0.1271
3824,-1.4772,-9.4164,-0.0192,0.1881,-0.1194,-0.1282
3832,-1.5131,-9.4715,-0.0192,0.1591,-0.1042,-0.1247
3841,-1.5347,-9.4523,0.0000,0.1303,-0.0893,-0.1167
3849,-1.4868,-9.4810,-0.0718,0.1026,-0.0751,-0.1111
3856,-1.4964,-9.3877,0.0000,0.0773,-0.0655,-0.1034
3864,-1.5371,-9.3518,-0.0431,0.0514,-0.0573,-0.0871
3872,-1.4796,-9.3422,-0.0311,0.0245,-0.0466,-0.0802
3880,-1.4988,-9.4164,0.0168,0.0037,-0.0405,-0.0682
3889,-1.5275,-9.3781,0.0742,-0.0165,-0.0368,-0.0514
3896,-1.5203,-9.3039,0.0431,-0.0397,-0.0320,-0.0365
3904,-1.5730,-9.3781,0.0239,-0.0624,-0.0266,-0.0213
3912,-1.4988,-9.3350,0.1053,-0.0783,-0.0184,-0.0048
3920,-1.5395,-9.3853,-0.0215,-0.1058,-0.0101,0.0120
3929,-1.5203,-9.3326,0.0000,-0.1343,-0.0072,0.0317
3937,-1.6257,-9.3637,-0.0072,-0.1625,-0.0037,0.0528
3944,-1.5778,-9.3853,0.0072,-0.1916,0.0035,0.0743
3952,-1.5778,-9.3996,0.0239,-0.2204,0.0136,0.1015
3960,-1.5299,-9.4379,0.0048,-0.2489,0.0229,0.1220
3969,-1.5490,-9.4284,0.0096,-0.2787,0.0333,0.1394
3977,-1.4988,-9.4547,-0.0503,-0.3062,0.0461,0.1529
3984,-1.4916,-9.5529,0.0000,-0.3339,0.0565,0.1660
3992,-1.5443,-9.5146,0.0455,-0.3597,0.0674,0.1687
4000,-1.4293,-9.5529,0.0144,-0.3842,0.0799,0.1745
4008,-1.4557,-9.5912,0.0287,-0.4120,0.0967,0.1732
4017,-1.4653,-9.7205,0.1341,-0.4351,0.1090,0.1697
4025,-1.4317,-9.6893,0.1101,-0.4631,0.1260,0.1657
4032,-1.4150,-9.7348,0.0646,-0.4860,0.1423,0.1519
4040,-1.4293,-9.7755,-0.0024,-0.5121,0.1625,0.1407
4048,-1.4054,-9.7947,0.0287,-0.5345,0.1740,0.1290
4057,-1.3982,-9.8162,0.0646,-0.5548,0.1908,0.1140
4065,-1.3838,-9.8330,0.1484,-0.5772,0.2094,0.0986
4072,-1.4150,-9.8737,0.0622,-0.6009,0.2313,0.0855
4080,-1.4054,-9.9216,0.0862,-0.6238,0.2457,0.0674
4088,-1.4748,-9.9479,0.0718,-0.6398,0.2601,0.0488
4097,-1.4150,-10.0006,0.1149,-0.6587,0.2777,0.0373
4105,-1.4916,-9.9886,0.1293,-0.6760,0.2880,0.0250
4113,-1.4676,-10.0509,0.2035,-0.6909,0.3038,0.0109
4120,-1.4629,-10.0461,0.1676,-0.7064,0.3096,0.0019
4128,-1.5107,-10.1227,0.1939,-0.7189,0.3182,-0.0080
4136,-1.4461,-10.1299,0.1077,-0.7328,0.3246,-0.0181
4145,-1.5634,-10.1993,0.1365,-0.7469,0.3347,-0.0237
4153,-1.5658,-10.2017,0.1293,-0.7554,0.3347,-0.0317
4160,-1.5634,-10.1897,0.1939,-0.7669,0.3363,-0.0344
4168,-1.6065,-10.2424,0.1532,-0.7807,0.3307,-0.0336
4176,-1.5802,-10.2951,0.2394,-0.7866,0.3267,-0.0349
4185,-1.6305,-10.3022,0.2610,-0.7994,0.3243,-0.0282
4193,-1.7262,-10.3310,0.2011,-0.8111,0.3176,-0.0245
4201,-1.6664,-10.3645,0.2849,-0.8242,0.3080,-0.0136
4208,-1.7142,-10.3837,0.1077,-0.8330,0.3014,-0.0032
4216,-1.7095,-10.3956,0.2107,-0.8471,0.2902,0.0096
4225,-1.6951,-10.4651,0.2394,-0.8556,0.2747,0.0216
4233,-1.7430,-10.5034,0.2610,-0.8695,0.2622,0.0360
4241,-1.7310,-10.5177,0.2418,-0.8801,0.2470,0.0514
4248,-1.7573,-10.4962,0.2466,-0.8900,0.2366,0.0679
4256,-1.7047,-10.4866,0.2155,-0.9020,0.2177,0.0810
4264,-1.7238,-10.5153,0.3017,-0.9108,0.2041,0.1021
4273,-1.6903,-10.5800,0.2921,-0.9254,0.1881,0.1159
4281,-1.6903,-10.5704,0.3208,-0.9398,0.1740,0.1295
4289,-1.7071,-10.5919,0.2945,-0.9465,0.1588,0.1410
4296,-1.6735,-10.6326,0.3352,-0.9593,0.1466,0.1458
4304,-1.6951,-10.6686,0.1580,-0.9683,0.1359,0.1498
4313,-1.6616,-10.7212,0.2274,-0.9808,0.1247,0.1567
4321,-1.6592,-10.7093,0.2251,-0.9912,0.1164,0.1548
4329,-1.6496,-10.7308,0.2514,-0.9958,0.1111,0.1569
4336,-1.6305,-10.7045,0.2945,-1.0070,0.1018,0.1527
4344,-1.5778,-10.7835,0.2466,-1.0139,0.0954,0.1452
4353,-1.6017,-10.7476,0.2538,-1.0182,0.0919,0.1420
4361,-1.6616,-10.7404,0.2370,-1.0232,0.0871,0.1332
4369,-1.6352,-10.6997,0.1939,-1.0229,0.0893,0.1263
4376,-1.6233,-10.7739,0.2969,-1.0293,0.0866,0.1154
4384,-1.6161,-10.7093,0.2634,-1.0264,0.0922,0.1029
4392,-1.6281,-10.7117,0.2729,-1.0264,0.0943,0.0946
4401,-1.5730,-10.7619,0.2011,-1.0227,0.0925,0.0837
4409,-1.5802,-10.7141,0.3160,-1.0206,0.0922,0.0722
4417,-1.6137,-10.6662,0.2729,-1.0176,0.1005,0.0608
4424,-1.5706,-10.7021,0.2538,-1.0072,0.1005,0.0528
4432,-1.5921,-10.6710,0.2777,-1.0022,0.1071,0.0408
4441,-1.5993,-10.6853,0.2322,-0.9912,0.1122,0.0298
4449,-1.6185,-10.6542,0.3017,-0.9827,0.1146,0.0205
4457,-1.6041,-10.6039,0.2658,-0.9718,0.1196,0.0149
4464,-1.5897,-10.6350,0.2658,-0.9654,0.1276,0.0099
4472,-1.6328,-10.5632,0.2538,-0.9507,0.1266,0.0043
4481,-1.5730,-10.5225,0.2849,-0.9401,0.1314,0.0064
4489,-1.6328,-10.5608,0.2993,-0.9254,0.1338,0.0061
4497,-1.7095,-10.5465,0.2083,-0.9126,0.1391,0.0091
4505,-1.6735,-10.4052,0.3112,-0.9006,0.1386,0.0088
4512,-1.6496,-10.4291,0.1891,-0.8852,0.1335,0.0171
4520,-1.6855,-10.3932,0.3089,-0.8705,0.1343,0.0237
4529,-1.6807,-10.3430,0.2873,-0.8524,0.1354,0.0346
4537,-1.7095,-10.3549,0.2993,-0.8383,0.1348,0.0450
4545,-1.6735,-10.2951,0.3232,-0.8220,0.1332,0.0560
4552,-1.6400,-10.2735,0.3017,-0.8066,0.1308,0.0653
4560,-1.6520,-10.2400,0.3519,-0.7887,0.1316,0.0778
4569,-1.5993,-10.2520,0.3352,-0.7706,0.1263,0.0887
4577,-1.6903,-10.1490,0.3089,-0.7549,0.1266,0.0981
4585,-1.6352,-10.1825,0.3184,-0.7376,0.1266,0.1047
4593,-1.6352,-10.1107,0.2969,-0.7202,0.1300,0.1154
4600,-1.5658,-10.0676,0.3543,-0.7027,0.1247,0.1210
4609,-1.5945,-10.0724,0.2825,-0.6837,0.1279,0.1279
4617,-1.5083,-9.9886,0.2370,-0.6643,0.1287,0.1327
4625,-1.5778,-9.9671,0.2921,-0.6459,0.1295,0.1335
4633,-1.5251,-9.9695,0.2825,-0.6302,0.1332,0.1372
4640,-1.4964,-9.9240,0.3304,-0.6115,0.1340,0.1386
4648,-1.4844,-9.8569,0.2298,-0.5931,0.1415,0.1338
4657,-1.4724,-9.8258,0.2538,-0.5774,0.1426,0.1330
4665,-1.4748,-9.8306,0.2466,-0.5542,0.1466,0.1292
4673,-1.4246,-9.8474,0.2993,-0.5369,0.1500,0.1207
4681,-1.3838,-9.7588,0.3112,-0.5137,0.1556,0.1122
4688,-1.3982,-9.7348,0.3089,-0.4943,0.1596,0.1029
4697,-1.4389,-9.7109,0.2442,-0.4687,0.1652,0.0943
4705,-1.4485,-9.6438,0.3112,-0.4455,0.1657,0.0826
4713,-1.4293,-9.7492,0.3089,-0.4245,0.1697,0.0738
4721,-1.4174,-9.6438,0.3136,-0.3962,0.1716,0.0618
4728,-1.3958,-9.6247,0.3950,-0.3738,0.1753,0.0469
4737,-1.4389,-9.6462,0.3304,-0.3400,0.1721,0.0376
4745,-1.3575,-9.5505,0.3184,-0.3118,0.1689,0.0221
4753,-1.4365,-9.6271,0.3903,-0.2870,0.1713,0.0139
4761,-1.4365,-9.5241,0.3591,-0.2518,0.1695,0.0027
4769,-1.4389,-9.4786,0.3041,-0.2302,0.1657,-0.0045
4776,-1.4509,-9.5170,0.3519,-0.2004,0.1628,-0.0117
4785,-1.4964,-9.4906,0.3280,-0.1615,0.1545,-0.0176
4793,-1.4629,-9.4164,0.3328,-0.1380,0.1474,-0.0213
4801,-1.4964,-9.4212,0.3089,-0.1090,0.1364,-0.0229
4809,-1.4748,-9.4523,0.3256,-0.0810,0.1284,-0.0187
4816,-1.4389,-9.3948,0.3879,-0.0525,0.1138,-0.0187
4825,-1.4916,-9.4355,0.3232,-0.0232,0.1047,-0.0179
4833,-1.4844,-9.4284,0.2849,-0.0003,0.0919,-0.0149
4841,-1.5467,-9.3637,0.2945,0.0264,0.0754,-0.0061
4849,-1.4724,-9.3972,0.3160,0.0514,0.0608,0.0003
4857,-1.5443,-9.4068,0.3615,0.0765,0.0466,0.0067
4865,-1.5203,-9.3685,0.3352,0.1023,0.0272,0.0165
4873,-1.5203,-9.4140,0.2969,0.1271,0.0139,0.0256
4881,-1.5155,-9.4739,0.2634,0.1482,0.0013,0.0322
4889,-1.4653,-9.4308,0.3879,0.1764,-0.0136,0.0418
4897,-1.4605,-9.4116,0.3543,0.2001,-0.0304,0.0477
4904,-1.4916,-9.4451,0.3160,0.2246,-0.0509,0.0520
4913,-1.4988,-9.5050,0.3208,0.2473,-0.0645,0.0568
4921,-1.4509,-9.5098,0.2298,0.2758,-0.0789,0.0640
4929,-1.4916,-9.5553,0.2682,0.3046,-0.0938,0.0679
4937,-1.4748,-9.5696,0.2634,0.3296,-0.1103,0.0695
4944,-1.4557,-9.6343,0.2011,0.3549,-0.1236,0.0738
4953,-1.4389,-9.6079,0.1844,0.3760,-0.1340,0.0722
4961,-1.5443,-9.6199,0.2394,0.4037,-0.1434,0.0741
4969,-1.5060,-9.6295,0.2298,0.4271,-0.1561,0.0701
4977,-1.4509,-9.7013,0.2586,0.4535,-0.1641,0.0661
4985,-1.4269,-9.6798,0.2610,0.4764,-0.1700,0.0600
4993,-1.4461,-9.6893,0.2490,0.4994,-0.1841,0.0498
5001,-1.4916,-9.7588,0.2562,0.5241,-0.1868,0.0434
5009,-1.4533,-9.8090,0.1891,0.5486,-0.1897,0.0333
5017,-1.4916,-9.8569,0.2274,0.5681,-0.1969,0.0237
5025,-1.4605,-9.8665,0.1987,0.5889,-0.2025,0.0163
5032,-1.4988,-9.8713,0.2227,0.6113,-0.2033,0.0083
5041,-1.5083,-9.9838,0.2634,0.6297,-0.2054,-0.0029
5049,-1.4629,-9.9527,0.2107,0.6528,-0.2113,-0.0096
5057,-1.5203,-9.9982,0.1341,0.6656,-0.2118,-0.0211
5065,-1.5251,-10.0437,0.2538,0.6837,-0.2161,-0.0304
5073,-1.5395,-10.0820,0.1963,0.7043,-0.2193,-0.0314
5081,-1.5467,-10.1107,0.2274,0.7202,-0.2201,-0.0349
5089,-1.5586,-10.1730,0.1460,0.7397,-0.2209,-0.0400
5097,-1.5778,-10.1921,0.1341,0.7554,-0.2246,-0.0424
5105,-1.6185,-10.1706,0.1484,0.7735,-0.2297,-0.0416
5113,-1.6017,-10.2280,0.1987,0.7853,-0.2308,-0.0432
5121,-1.6281,-10.2592,0.2179,0.7986,-0.2318,-0.0445
5129,-1.5706,-10.2735,0.1820,0.8092,-0.2361,-0.0418
5137,-1.6544,-10.3142,0.1867,0.8183,-0.2406,-0.0405
5145,-1.6352,-10.3190,0.1939,0.8287,-0.2406,-0.0352
5153,-1.6065,-10.3453,0.1700,0.8359,-0.2403,-0.0328
5161,-1.6185,-10.3597,0.1676,0.8463,-0.2430,-0.0304
5169,-1.6424,-10.3956,0.1676,0.8505,-0.2483,-0.0234
5177,-1.6783,-10.3884,0.2107,0.8543,-0.2486,-0.0179
5185,-1.6472,-10.4555,0.2155,0.8633,-0.2459,-0.0115
5193,-1.6185,-10.4555,0.1628,0.8700,-0.2526,-0.0088
5201,-1.6568,-10.4938,0.1269,0.8804,-0.2545,0.0005
5209,-1.6257,-10.5034,0.0599,0.8855,-0.2566,0.0013
5217,-1.6855,-10.4938,0.1006,0.8887,-0.2550,0.0064
5225,-1.6496,-10.5632,0.1628,0.8953,-0.2526,0.0088
5233,-1.6089,-10.5776,0.1365,0.9033,-0.2566,0.0139
5241,-1.6879,-10.5273,0.1939,0.9110,-0.2513,0.0120
5250,-1.6257,-10.5896,0.0766,0.9177,-0.2553,0.0133
5257,-1.6424,-10.6207,0.2059,0.9262,-0.2558,0.0075
5265,-1.6137,-10.5872,0.2346,0.9332,-0.2513,0.0091
5273,-1.6209,-10.6542,0.1125,0.9363,-0.2459,0.0061
5281,-1.5754,-10.6470,0.1197,0.9507,-0.2443,0.0008
5289,-1.5921,-10.6542,0.1891,0.9486,-0.2395,-0.0043
5297,-1.5874,-10.6734,0.0407,0.9553,-0.2332,-0.0104
5305,-1.6831,-10.6829,0.0934,0.9582,-0.2300,-0.0149
5313,-1.6233,-10.6829,0.0766,0.9611,-0.2302,-0.0237
5321,-1.5969,-10.6446,0.0670,0.9633,-0.2212,-0.0301
5329,-1.5874,-10.6853,0.1365,0.9622,-0.2190,-0.0341
5338,-1.6496,-10.6973,0.0622,0.9625,-0.2121,-0.0394
5345,-1.6161,-10.6686,0.1460,0.9633,-0.2094,-0.0432
5353,-1.6544,-10.6111,0.0168,0.9590,-0.2062,-0.0506
5361,-1.6592,-10.6518,0.0862,0.9593,-0.2036,-0.0514
5369,-1.6640,-10.6183,-0.0646,0.9545,-0.2030,-0.0538
5378,-1.6089,-10.5824,0.0335,0.9475,-0.1974,-0.0560
5385,-1.6783,-10.6470,0.1053,0.9419,-0.1951,-0.0602
5393,-1.5826,-10.6279,0.0814,0.9337,-0.1929,-0.0634
5401,-1.6640,-10.5560,0.1030,0.9222,-0.1908,-0.0666
5409,-1.6424,-10.4962,0.1389,0.9150,-0.1908,-0.0610
5417,-1.5682,-10.5105,-0.0192,0.9030,-0.1887,-0.0632
5426,-1.6424,-10.4579,0.0694,0.8942,-0.1900,-0.0584
5433,-1.6520,-10.4722,0.1413,0.8825,-0.1911,-0.0584
5441,-1.7190,-10.4818,0.0742,0.8679,-0.1889,-0.0536
5449,-1.6496,-10.4459,0.0359,0.8540,-0.1929,-0.0498
5457,-1.6520,-10.4387,0.0622,0.8431,-0.1935,-0.0434
5466,-1.6735,-10.3813,0.1149,0.8282,-0.1940,-0.0392
5473,-1.6999,-10.2927,0.0599,0.8119,-0.1927,-0.0336
5481,-1.6520,-10.3094,0.1149,0.7983,-0.1953,-0.0288
5489,-1.6137,-10.2783,-0.0048,0.7781,-0.1974,-0.0213
5497,-1.6017,-10.2185,0.0622,0.7615,-0.1951,-0.0149
5506,-1.5945,-10.1945,0.0551,0.7448,-0.1961,-0.0120
5514,-1.6209,-10.1801,0.0455,0.7264,-0.1977,-0.0096
5521,-1.5730,-10.1945,0.0670,0.7072,-0.1951,-0.0016
5529,-1.6209,-10.0892,0.0527,0.6891,-0.1972,0.0024
5537,-1.5921,-10.1059,0.0646,0.6715,-0.1921,0.0032
5545,-1.5275,-10.0652,0.0838,0.6555,-0.1948,0.0045
5554,-1.5083,-10.0748,0.0192,0.6384,-0.1884,0.0069
5561,-1.5897,-9.9934,0.0670,0.6209,-0.1860,0.0101
5569,-1.5682,-10.0293,0.0335,0.6025,-0.1905,0.0075
5577,-1.5850,-10.0509,0.0048,0.5883,-0.1841,0.0077
5585,-1.5083,-9.9120,0.0072,0.5726,-0.1823,0.0035
5594,-1.4820,-9.8617,0.0215,0.5500,-0.1775,0.0072
5602,-1.4964,-9.8378,-0.0263,0.5377,-0.1708,0.0027
5609,-1.4820,-9.8809,0.1197,0.5201,-0.1687,-0.0016
5617,-1.5490,-9.8210,0.0838,0.5055,-0.1636,0.0000
5625,-1.4653,-9.8402,0.1269,0.4890,-0.1583,-0.0005
5634,-1.4748,-9.7324,0.0766,0.4644,-0.1553,-0.0064
5642,-1.4724,-9.7683,0.0431,0.4506,-0.1495,-0.0099
5649,-1.4988,-9.6965,0.0168,0.4309,-0.1388,-0.0131
5657,-1.4676,-9.6534,0.0479,0.4088,-0.1354,-0.0136
5665,-1.4676,-9.6965,0.0886,0.3904,-0.1303,-0.0123
5673,-1.4557,-9.6414,0.0048,0.3685,-0.1242,-0.0160
5682,-1.4557,-9.6654,0.0814,0.3451,-0.1191,-0.0179
5689,-1.4748,-9.5984,0.0838,0.3230,-0.1100,-0.0181
5697,-1.5251,-9.5792,-0.0263,0.3008,-0.1018,-0.0184
5705,-1.4844,-9.5744,0.0311,0.2798,-0.0949,-0.0157
5713,-1.4198,-9.5768,0.0407,0.2547,-0.0909,-0.0131
5722,-1.4461,-9.5577,0.0024,0.2260,-0.0877,-0.0077
5730,-1.4916,-9.4475,0.0287,0.1982,-0.0810,-0.0021
5737,-1.5179,-9.4954,0.0551,0.1697,-0.0733,0.0019
5745,-1.4269,-9.4643,0.0503,0.1450,-0.0655,0.0043
5753,-1.4676,-9.4739,0.0144,0.1164,-0.0594,0.0093
5762,-1.4581,-9.4834,0.0479,0.0901,-0.0522,0.0125
5770,-1.4581,-9.4954,0.0527,0.0642,-0.0498,0.0197
5777,-1.5371,-9.4212,-0.0168,0.0384,-0.0400,0.0218
5785,-1.5395,-9.4523,0.0311,0.0152,-0.0301,0.0269
5793,-1.4700,-9.4858,0.0718,-0.0091,-0.0336,0.0320
5801,-1.4581,-9.4044,-0.0335,-0.0322,-0.0242,0.0368
5810,-1.5083,-9.5193,0.0168,-0.0586,-0.0184,0.0426
5818,-1.4772,-9.4858,0.0072,-0.0834,-0.0083,0.0440
5825,-1.4700,-9.4978,0.0718,-0.1085,-0.0021,0.0514
5833,-1.4964,-9.4978,0.0192,-0.1332,0.0061,0.0533
5841,-1.4317,-9.4451,0.0575,-0.1599,0.0141,0.0597
5850,-1.4844,-9.5193,0.0551,-0.1844,0.0248,0.0613
5858,-1.5227,-9.4882,0.0503,-0.2086,0.0328,0.0645
5865,-1.4820,-9.5146,0.0814,-0.2356,0.0405,0.0693
5873,-1.4605,-9.5553,0.1077,-0.2585,0.0506,0.0695
5881,-1.4700,-9.5505,-0.0263,-0.2838,0.0602,0.0703
5890,-1.4629,-9.6438,0.0311,-0.3054,0.0698,0.0735
5898,-1.4916,-9.5648,0.0814,-0.3269,0.0783,0.0741
5906,-1.5347,-9.6678,-0.0144,-0.3469,0.0919,0.0717
5913,-1.4413,-9.6893,0.0910,-0.3683,0.0967,0.0703
5921,-1.5203,-9.6462,0.0239,-0.3898,0.1063,0.0709
5929,-1.4605,-9.6462,0.0622,-0.4098,0.1167,0.0663
5938,-1.4772,-9.7540,0.1413,-0.4271,0.1292,0.0687
5946,-1.4485,-9.7229,0.1006,-0.4527,0.1367,0.0682
5953,-1.4964,-9.7947,0.1006,-0.4719,0.1498,0.0674
5961,-1.4772,-9.7659,0.0790,-0.4906,0.1524,0.0663
5969,-1.5107,-9.7923,0.1221,-0.5121,0.1631,0.0666
5978,-1.5419,-9.7875,0.1724,-0.5305,0.1721,0.0666
5986,-1.5371,-9.8689,-0.0287,-0.5521,0.1783,0.0640
5994,-1.5179,-9.9240,0.1317,-0.5686,0.1807,0.0674
6001,-1.5897,-9.9096,0.1101,-0.5868,0.1889,0.0679
6009,-1.5036,-9.9240,0.1652,-0.6014,0.1943,0.0709
6018,-1.5060,-9.9718,0.0934,-0.6182,0.1988,0.0722
6026,-1.5490,-10.0126,0.1891,-0.6342,0.2060,0.0743
6034,-1.5610,-10.0413,0.1772,-0.6510,0.2086,0.0751
6041,-1.5874,-10.0652,0.1197,-0.6656,0.2124,0.0791
6049,-1.5443,-10.0461,0.1389,-0.6779,0.2172,0.0789
6057,-1.5634,-10.1754,0.1820,-0.6907,0.2148,0.0786
6066,-1.5969,-10.1873,0.1844,-0.7024,0.2193,0.0791
6074,-1.5802,-10.1251,0.2514,-0.7123,0.2217,0.0829
6082,-1.5730,-10.2041,0.1125,-0.7280,0.2222,0.0834
6089,-1.6305,-10.1969,0.2873,-0.7397,0.2225,0.0871
6097,-1.6400,-10.2376,0.1963,-0.7490,0.2249,0.0911
6106,-1.5850,-10.2903,0.2346,-0.7618,0.2212,0.0919
6114,-1.5969,-10.4004,0.2466,-0.7714,0.2241,0.0935
6122,-1.6281,-10.3166,0.2107,-0.7829,0.2225,0.0967
6129,-1.6281,-10.3597,0.1724,-0.7903,0.2209,0.0981
6137,-1.5874,-10.3741,0.2322,-0.7973,0.2196,0.0989
6146,-1.6448,-10.4363,0.2083,-0.8100,0.2166,0.0986
6154,-1.5706,-10.4028,0.2346,-0.8167,0.2134,0.0994
6162,-1.5730,-10.4698,0.2131,-0.8271,0.2126,0.0983
6170,-1.6640,-10.3908,0.2155,-0.8372,0.2097,0.0983
6177,-1.6041,-10.4315,0.1652,-0.8434,0.2060,0.1005
6185,-1.6424,-10.4555,0.2179,-0.8540,0.2038,0.0997
6194,-1.6735,-10.4986,0.2705,-0.8615,0.1996,0.0959
6202,-1.6472,-10.5129,0.2322,-0.8711,0.1948,0.0975
6210,-1.6352,-10.5489,0.1987,-0.8812,0.1913,0.0935
6217,-1.5874,-10.5465,0.2418,-0.8879,0.1860,0.0895
6225,-1.6664,-10.5297,0.2945,-0.8921,0.1876,0.0882
6234,-1.6185,-10.4986,0.2131,-0.8969,0.1812,0.0869
6242,-1.6305,-10.5393,0.2490,-0.9041,0.1791,0.0858
6250,-1.6951,-10.5393,0.2322,-0.9033,0.1727,0.0850
6258,-1.6352,-10.6015,0.2466,-0.9062,0.1689,0.0837
6265,-1.6424,-10.6518,0.2394,-0.9102,0.1676,0.0815
6274,-1.6281,-10.5728,0.1891,-0.9150,0.1649,0.0839
6282,-1.6712,-10.5656,0.2873,-0.9148,0.1601,0.0839
6290,-1.6807,-10.6350,0.2442,-0.9145,0.1551,0.0821
6298,-1.5538,-10.5728,0.3089,-0.9158,0.1514,0.0818
6305,-1.6257,-10.5058,0.3280,-0.9156,0.1514,0.0807
6313,-1.6065,-10.6015,0.3543,-0.9145,0.1407,0.0802
6322,-1.6448,-10.4962,0.2873,-0.9110,0.1402,0.0810
6330,-1.6807,-10.5321,0.2705,-0.9028,0.1372,0.0818
6338,-1.7095,-10.5512,0.3352,-0.8977,0.1351,0.0821
6345,-1.6257,-10.5417,0.2346,-0.8916,0.1343,0.0837
6353,-1.6305,-10.5177,0.3328,-0.8884,0.1316,0.0874
6362,-1.6472,-10.4483,0.2322,-0.8801,0.1295,0.0898
6370,-1.7071,-10.3980,0.3089,-0.8700,0.1260,0.0869
6378,-1.6113,-10.4411,0.2442,-0.8639,0.1247,0.0887
6386,-1.6424,-10.4220,0.2801,-0.8524,0.1226,0.0885
6393,-1.6161,-10.4100,0.3879,-0.8412,0.1260,0.0890
6402,-1.6017,-10.3382,0.3424,-0.8292,0.1236,0.0903
6410,-1.6520,-10.3956,0.2993,-0.8159,0.1236,0.0903
6418,-1.6376,-10.3765,0.2801,-0.8031,0.1255,0.0946
6426,-1.6017,-10.2831,0.3448,-0.7925,0.1215,0.0933
6433,-1.5921,-10.3693,0.1939,-0.7765,0.1212,0.0919
6441,-1.5347,-10.2639,0.3089,-0.7655,0.1255,0.0898
6450,-1.5682,-10.2783,0.2873,-0.7496,0.1258,0.0890
6458,-1.6113,-10.2592,0.3017,-0.7354,0.1247,0.0901
6466,-1.6113,-10.1825,0.2682,-0.7194,0.1276,0.0863
6474,-1.5658,-10.1754,0.3352,-0.7032,0.1279,0.0869
6481,-1.5443,-10.1562,0.3783,-0.6869,0.1287,0.0837
6490,-1.5490,-10.1586,0.2753,-0.6728,0.1314,0.0813
6498,-1.5634,-10.1179,0.2322,-0.6579,0.1300,0.0781
6506,-1.5778,-10.0341,0.2849,-0.6398,0.1354,0.0738
6514,-1.5562,-10.0078,0.1891,-0.6230,0.1330,0.0743
6521,-1.5299,-10.0078,0.2203,-0.6054,0.1335,0.0695
6530,-1.4772,-9.9982,0.4022,-0.5870,0.1370,0.0690
6538,-1.5299,-9.9311,0.3998,-0.5708,0.1402,0.0653
6546,-1.4772,-9.9024,0.2825,-0.5518,0.1404,0.0608
6554,-1.5203,-9.8713,0.3855,-0.5364,0.1362,0.0600
6562,-1.4246,-9.8617,0.3256,-0.5188,0.1383,0.0568
6569,-1.4868,-9.8043,0.2155,-0.4991,0.1410,0.0549
6578,-1.5538,-9.7827,0.3783,-0.4826,0.1404,0.0506
6586,-1.4940,-9.7803,0.2418,-0.4668,0.1386,0.0514
6594,-1.4892,-9.7396,0.3831,-0.4458,0.1391,0.0482
6602,-1.4892,-9.7300,0.3735,-0.4271,0.1372,0.0442
6609,-1.4772,-9.6965,0.4166,-0.4069,0.1335,0.0445
6618,-1.4748,-9.6869,0.2682,-0.3856,0.1322,0.0448
6626,-1.5036,-9.7444,0.3735,-0.3589,0.1303,0.0429
6634,-1.5395,-9.7061,0.2873,-0.3400,0.1247,0.0437
6642,-1.4748,-9.5840,0.2274,-0.3203,0.1188,0.0410
6650,-1.4820,-9.6031,0.3304,-0.2942,0.1164,0.0432
6658,-1.4868,-9.5720,0.3448,-0.2694,0.1069,0.0392
6666,-1.4605,-9.6055,0.1963,-0.2449,0.1050,0.0381
6674,-1.4868,-9.5289,0.3160,-0.2185,0.0959,0.0354
6682,-1.4413,-9.5864,0.2969,-0.1948,0.0925,0.0413
6690,-1.4365,-9.5217,0.3783,-0.1697,0.0845,0.0381
6697,-1.4629,-9.5553,0.3855,-0.1423,0.0773,0.0384
6706,-1.4772,-9.5457,0.3017,-0.1194,0.0698,0.0333
6714,-1.4629,-9.4667,0.3112,-0.0903,0.0621,0.0365
6722,-1.4676,-9.4978,0.2179,-0.0648,0.0584,0.0370
6730,-1.4317,-9.5433,0.3376,-0.0378,0.0469,0.0354
6738,-1.4581,-9.4930,0.3256,-0.0136,0.0410,0.0336
6746,-1.4461,-9.5074,0.2131,0.0125,0.0338,0.0336
6754,-1.5179,-9.5241,0.2729,0.0405,0.0290,0.0285
6762,-1.4581,-9.4786,0.3615,0.0653,0.0216,0.0280
6770,-1.4389,-9.5002,0.3256,0.0885,0.0165,0.0274
6778,-1.4198,-9.5313,0.2705,0.1151,0.0053,0.0253
6786,-1.3743,-9.5577,0.2753,0.1418,0.0019,0.0200
6794,-1.4557,-9.4403,0.3112,0.1657,-0.0037,0.0192
6802,-1.4581,-9.5122,0.2466,0.1903,-0.0155,0.0144
6810,-1.3958,-9.4571,0.2753,0.2121,-0.0240,0.0155
6818,-1.4772,-9.5553,0.2801,0.2364,-0.0322,0.0088
6827,-1.5179,-9.5026,0.3017,0.2617,-0.0408,0.0107
6834,-1.4581,-9.6007,0.2298,0.2854,-0.0482,0.0080
6842,-1.4581,-9.5912,0.3136,0.3067,-0.0570,0.0016
6850,-1.4317,-9.5792,0.3065,0.3277,-0.0653,0.0027
6858,-1.4772,-9.6678,0.2849,0.3496,-0.0733,0.0000
6866,-1.4868,-9.6798,0.2370,0.3704,-0.0858,-0.0032
6874,-1.5083,-9.6271,0.3256,0.3909,-0.0949,-0.0040
6882,-1.4772,-9.6582,0.2682,0.4128,-0.1053,-0.0032
6890,-1.5155,-9.6917,0.3065,0.4327,-0.1138,-0.0037
6898,-1.4676,-9.7205,0.2514,0.4538,-0.1255,-0.0027
6906,-1.5012,-9.7181,0.2586,0.4735,-0.1351,-0.0053
6915,-1.4700,-9.7923,0.2298,0.4970,-0.1431,-0.0067
6922,-1.4724,-9.7851,0.2993,0.5143,-0.1537,-0.0096
6930,-1.5179,-9.8833,0.2418,0.5316,-0.1615,-0.0107
6938,-1.5395,-9.8737,0.2107,0.5550,-0.1663,-0.0069
6946,-1.5826,-9.9024,0.1724,0.5689,-0.1772,-0.0088
6955,-1.5538,-9.9599,0.2035,0.5822,-0.1791,-0.0088
6962,-1.5730,-9.9240,0.2083,0.6003,-0.1855,-0.0069
6970,-1.5993,-9.9790,0.2921,0.6145,-0.1916,-0.0069
6978,-1.5083,-10.0245,0.1532,0.6310,-0.1982,-0.0083
6986,-1.5610,-9.9790,0.1939,0.6440,-0.2001,-0.0101
6994,-1.4964,-10.0485,0.1508,0.6574,-0.2070,-0.0109
7002,-1.5395,-10.1299,0.2083,0.6739,-0.2118,-0.0112
7010,-1.5562,-10.0868,0.1987,0.6883,-0.2177,-0.0101
7018,-1.5538,-10.1155,0.1844,0.7019,-0.2188,-0.0104
7026,-1.5969,-10.1682,0.2274,0.7141,-0.2241,-0.0096
7034,-1.5155,-10.1251,0.1963,0.7237,-0.2212,-0.0112
7043,-1.5658,-10.1825,0.1867,0.7365,-0.2318,-0.0173
7050,-1.5586,-10.2400,0.2801,0.7464,-0.2281,-0.0173
7058,-1.5969,-10.3190,0.1987,0.7568,-0.2276,-0.0176
7066,-1.5538,-10.2663,0.2035,0.7674,-0.2318,-0.0203
7074,-1.6137,-10.2711,0.1724,0.7773,-0.2310,-0.0218
7083,-1.5897,-10.3453,0.1269,0.7834,-0.2300,-0.0269
7090,-1.5945,-10.3453,0.2227,0.7911,-0.2313,-0.0288
7098,-1.5514,-10.3214,0.1413,0.8021,-0.2305,-0.0285
7106,-1.6137,-10.4890,0.1508,0.8058,-0.2302,-0.0320
7114,-1.6113,-10.3837,0.1341,0.8159,-0.2294,-0.0368
7122,-1.5754,-10.4411,0.1628,0.8239,-0.2289,-0.0378
7131,-1.6137,-10.4076,0.1125,0.8335,-0.2273,-0.0381
7138,-1.5969,-10.4818,0.2035,0.8367,-0.2254,-0.0413
7146,-1.5921,-10.5058,0.0144,0.8444,-0.2260,-0.0421
7154,-1.6352,-10.5153,0.2035,0.8484,-0.2222,-0.0442
7162,-1.5682,-10.4962,0.1963,0.8553,-0.2201,-0.0432
7171,-1.6281,-10.5010,0.2107,0.8596,-0.2188,-0.0485
7178,-1.6855,-10.4651,0.1820,0.8593,-0.2188,-0.0472
7186,-1.6544,-10.4962,0.1365,0.8628,-0.2164,-0.0480
7194,-1.6209,-10.5273,0.2179,0.8663,-0.2169,-0.0488
7202,-1.6424,-10.4866,0.0982,0.8684,-0.2148,-0.0469
7211,-1.6472,-10.5153,0.1652,0.8673,-0.2140,-0.0480
7219,-1.6496,-10.5536,0.1053,0.8727,-0.2108,-0.0453
7226,-1.6568,-10.5058,0.1269,0.8687,-0.2097,-0.0474
7234,-1.6903,-10.5249,0.1628,0.8684,-0.2057,-0.0458
7242,-1.6257,-10.4722,0.0622,0.8679,-0.2062,-0.0461
7250,-1.6065,-10.4722,0.0670,0.8655,-0.2028,-0.0429
7259,-1.6113,-10.5082,0.1269,0.8641,-0.2017,-0.0408
7266,-1.5897,-10.5656,0.1700,0.8604,-0.2012,-0.0402
7274,-1.6376,-10.5058,0.1101,0.8569,-0.2004,-0.0378
7282,-1.6712,-10.4722,0.0503,0.8527,-0.1988,-0.0384
7290,-1.6448,-10.4603,0.0622,0.8474,-0.1966,-0.0357
7299,-1.6496,-10.4267,0.0766,0.8428,-0.1940,-0.0322
7307,-1.6161,-10.4459,0.0646,0.8348,-0.1921,-0.0344
7314,-1.5897,-10.3430,0.1245,0.8287,-0.1924,-0.0293
7322,-1.5826,-10.4483,-0.0215,0.8215,-0.1879,-0.0293
7330,-1.6065,-10.3956,0.1221,0.8108,-0.1836,-0.0290
7339,-1.5826,-10.3741,0.0742,0.8029,-0.1852,-0.0245
7347,-1.6281,-10.3573,0.0838,0.7914,-0.1825,-0.0253
7354,-1.5826,-10.3094,0.1269,0.7845,-0.1785,-0.0261
7362,-1.6424,-10.3142,0.1317,0.7706,-0.1764,-0.0240
7370,-1.5945,-10.3382,0.0359,0.7552,-0.1703,-0.0261
7378,-1.5874,-10.2256,0.0599,0.7461,-0.1711,-0.0277
7387,-1.5658,-10.2879,0.0072,0.7349,-0.1679,-0.0272
7395,-1.5945,-10.2735,0.0575,0.7192,-0.1620,-0.0274
7402,-1.6209,-10.1778,0.1532,0.7067,-0.1628,-0.0250
7410,-1.6065,-10.1370,0.0072,0.6933,-0.1588,-0.0277
7418,-1.5993,-10.1394,0.0551,0.6765,-0.1567,-0.0253
7427,-1.6137,-10.1394,0.1197,0.6611,-0.1524,-0.0266
7435,-1.5897,-10.1538,0.0287,0.6472,-0.1506,-0.0264
7442,-1.5634,-10.0437,0.1269,0.6275,-0.1476,-0.0258
7450,-1.6065,-10.0197,0.0407,0.6150,-0.1455,-0.0272
7458,-1.5227,-9.9742,0.0383,0.5990,-0.1418,-0.0237
7467,-1.5802,-10.0604,0.0311,0.5814,-0.1402,-0.0256
7475,-1.5347,-9.9527,0.0311,0.5644,-0.1375,-0.0245
7483,-1.5227,-9.9455,0.0575,0.5470,-0.1375,-0.0224
7490,-1.5251,-9.8904,0.0670,0.5324,-0.1348,-0.0224
7498,-1.5443,-9.9527,0.0431,0.5148,-0.1335,-0.0195
7506,-1.5706,-9.8737,0.1149,0.4980,-0.1263,-0.0165
7515,-1.5826,-9.8402,0.0120,0.4820,-0.1266,-0.0141
7523,-1.5131,-9.8162,0.0263,0.4612,-0.1218,-0.0099
7530,-1.5682,-9.8162,0.1125,0.4431,-0.1226,-0.0053
7538,-1.5227,-9.7779,0.0431,0.4279,-0.1218,-0.0072
7546,-1.5323,-9.7037,0.0168,0.4058,-0.1178,-0.0003
7555,-1.4772,-9.7324,0.0718,0.3874,-0.1124,-0.0019
7563,-1.5323,-9.6893,-0.0335,0.3693,-0.1114,0.0019
7570,-1.5826,-9.7109,0.0575,0.3467,-0.1087,0.0043
7578,-1.5371,-9.6822,0.0982,0.3307,-0.1058,0.0099
7586,-1.5467,-9.6941,0.0982,0.3091,-0.0997,0.0107
7595,-1.4868,-9.6343,0.0886,0.2888,-0.0951,0.0141
7603,-1.4820,-9.6127,0.0192,0.2689,-0.0898,0.0176
7611,-1.5012,-9.5577,0.0934,0.2467,-0.0871,0.0187
7618,-1.4700,-9.5888,0.0431,0.2260,-0.0847,0.0213
7626,-1.5251,-9.5960,0.0383,0.2033,-0.0789,0.0253
7634,-1.4293,-9.5888,-0.0024,0.1844,-0.0730,0.0288
7643,-1.4509,-9.5313,0.0287,0.1623,-0.0690,0.0320
7651,-1.5467,-9.5361,0.0168,0.1340,-0.0616,0.0365
7658,-1.4868,-9.5217,-0.0048,0.1116,-0.0573,0.0344
7666,-1.4844,-9.5002,0.0862,0.0877,-0.0506,0.0400
7674,-1.4605,-9.5265,0.0024,0.0640,-0.0432,0.0413
7683,-1.4198,-9.5050,0.0144,0.0402,-0.0410,0.0432
7691,-1.5203,-9.5433,0.0311,0.0163,-0.0309,0.0440
7699,-1.4940,-9.5337,0.0646,-0.0056,-0.0245,0.0450
7706,-1.4964,-9.5289,0.0527,-0.0272,-0.0173,0.0466
7714,-1.4365,-9.5553,0.0263,-0.0469,-0.0133,0.0485
7723,-1.4653,-9.5217,0.0287,-0.0717,-0.0072,0.0488
7731,-1.4246,-9.5193,0.0886,-0.0954,-0.0029,0.0448
7739,-1.4653,-9.5481,-0.0455,-0.1196,0.0083,0.0464
7746,-1.4533,-9.5170,0.0886,-0.1399,0.0144,0.0482
7754,-1.4940,-9.5864,0.0527,-0.1636,0.0234,0.0514
7762,-1.4868,-9.5265,0.0503,-0.1852,0.0258,0.0525
7771,-1.4796,-9.5529,0.0670,-0.2068,0.0330,0.0554
7779,-1.4916,-9.5768,-0.0479,-0.2286,0.0413,0.0544
7787,-1.4676,-9.6055,0.0934,-0.2534,0.0450,0.0568
7794,-1.5131,-9.5984,0.1293,-0.2750,0.0552,0.0581
7802,-1.4748,-9.5888,0.0958,-0.2944,0.0629,0.0621
7811,-1.5227,-9.6606,0.0862,-0.3142,0.0669,0.0637
7819,-1.5131,-9.6271,0.0694,-0.3349,0.0746,0.0690
7827,-1.5514,-9.6534,0.1341,-0.3603,0.0815,0.0690
7834,-1.5131,-9.7037,0.0431,-0.3792,0.0887,0.0711
7842,-1.5107,-9.7229,0.0934,-0.3970,0.0967,0.0749
7851,-1.5467,-9.6893,0.0527,-0.4194,0.1082,0.0757
7859,-1.5179,-9.7420,0.0790,-0.4386,0.1130,0.0791
7867,-1.4988,-9.8043,0.1437,-0.4570,0.1220,0.0805
7875,-1.5754,-9.8569,0.0622,-0.4756,0.1290,0.0831
7882,-1.5323,-9.8162,0.1173,-0.4943,0.1338,0.0861
7890,-1.5155,-9.7947,0.0527,-0.5081,0.1404,0.0879
7899,-1.5562,-9.9024,0.1030,-0.5260,0.1474,0.0911
7907,-1.5802,-9.9000,0.1101,-0.5388,0.1522,0.0983
7915,-1.5395,-9.8665,0.1532,-0.5548,0.1604,0.1013
7922,-1.5874,-9.9288,0.1125,-0.5676,0.1647,0.0975
7930,-1.5347,-9.9766,0.0359,-0.5804,0.1716,0.0999
7939,-1.6041,-9.9695,0.1676,-0.5945,0.1804,0.1015
7947,-1.5060,-10.0078,0.1293,-0.6054,0.1820,0.1015
7955,-1.5945,-10.0556,0.0934,-0.6163,0.1817,0.1039
7963,-1.5323,-10.1394,0.0407,-0.6286,0.1884,0.1013
7970,-1.5443,-10.0461,0.1365,-0.6435,0.1881,0.1010
7979,-1.5634,-10.1059,0.1724,-0.6526,0.1972,0.1026
7987,-1.5897,-10.1442,0.1987,-0.6606,0.1964,0.1053
7995,-1.6233,-10.0916,0.1652,-0.6734,0.2022,0.1018
8003,-1.5826,-10.2065,0.1748,-0.6805,0.2065,0.1015
8010,-1.5921,-10.2280,0.2370,-0.6915,0.2089,0.0967
8018,-1.5514,-10.2185,0.1724,-0.7008,0.2070,0.0970
8027,-1.6041,-10.2041,0.1484,-0.7085,0.2089,0.0967
8035,-1.5945,-10.2113,0.2251,-0.7210,0.2113,0.0965
8043,-1.6281,-10.2807,0.1891,-0.7280,0.2102,0.0941
8051,-1.5586,-10.3070,0.1221,-0.7357,0.2094,0.0938
8058,-1.5610,-10.3262,0.1772,-0.7472,0.2108,0.0919
8067,-1.6065,-10.3142,0.2179,-0.7517,0.2070,0.0938
8075,-1.5586,-10.3980,0.2011,-0.7621,0.2089,0.0927
8083,-1.5730,-10.3717,0.2131,-0.7698,0.2044,0.0927
8091,-1.6424,-10.4100,0.2274,-0.7783,0.2041,0.0922
8098,-1.6520,-10.4387,0.2274,-0.7861,0.2041,0.0917
8107,-1.6041,-10.4291,0.1700,-0.7941,0.1996,0.0901
8115,-1.5706,-10.4196,0.2083,-0.7978,0.1985,0.0911
8123,-1.6735,-10.4172,0.1221,-0.8055,0.1924,0.0887
8131,-1.6376,-10.4555,0.2777,-0.8140,0.1908,0.0938
8138,-1.6161,-10.3980,0.1820,-0.8178,0.1860,0.0927
8146,-1.6568,-10.4435,0.2203,-0.8186,0.1812,0.0927
8155,-1.6520,-10.4124,0.2538,-0.8274,0.1764,0.0927
8163,-1.6257,-10.4866,0.1484,-0.8279,0.1759,0.0967
8171,-1.6376,-10.4674,0.1748,-0.8314,0.1665,0.0949
8179,-1.6185,-10.4507,0.2346,-0.8316,0.1692,0.0946
8186,-1.6185,-10.4722,0.2490,-0.8322,0.1609,0.0967
8195,-1.6735,-10.4698,0.3184,-0.8335,0.1604,0.0983
8203,-1.6089,-10.4555,0.2107,-0.8375,0.1527,0.0978
8211,-1.6137,-10.4890,0.2322,-0.8316,0.1471,0.0997
8219,-1.6089,-10.4315,0.2825,-0.8316,0.1450,0.0997
8226,-1.6376,-10.4579,0.2394,-0.8258,0.1404,0.1018
8235,-1.5993,-10.3932,0.1365,-0.8212,0.1372,0.0999
8243,-1.6137,-10.3549,0.3065,-0.8202,0.1327,0.0999
8251,-1.6592,-10.4220,0.2394,-0.8122,0.1327,0.0983
8259,-1.6472,-10.4100,0.2705,-0.8090,0.1322,0.0978
8267,-1.6352,-10.4124,0.2179,-0.8015,0.1279,0.0962
8274,-1.5850,-10.3549,0.1963,-0.7906,0.1274,0.0991
8283,-1.5443,-10.3477,0.3112,-0.7839,0.1236,0.0949
8291,-1.5874,-10.2975,0.2682,-0.7749,0.1234,0.0959
8299,-1.6137,-10.2975,0.2131,-0.7666,0.1202,0.0919
8307,-1.5778,-10.2472,0.3208,-0.7520,0.1196,0.0898
8314,-1.5299,-10.2807,0.2586,-0.7442,0.1207,0.0858
8323,-1.5921,-10.2472,0.3017,-0.7296,0.1236,0.0839
8331,-1.5610,-10.2735,0.3160,-0.7202,0.1204,0.0853
8339,-1.5682,-10.2735,0.2801,-0.7069,0.1212,0.0799
8347,-1.5706,-10.1849,0.2873,-0.6957,0.1188,0.0789
8355,-1.5945,-10.2065,0.3112,-0.6829,0.1204,0.0783
8363,-1.5347,-10.1155,0.3663,-0.6691,0.1220,0.0751
8371,-1.5778,-10.0987,0.3376,-0.6560,0.1202,0.0727
8379,-1.5778,-10.0724,0.2418,-0.6424,0.1202,0.0685
8387,-1.5874,-10.0269,0.2346,-0.6323,0.1255,0.0671
8395,-1.5586,-10.0197,0.2753,-0.6158,0.1223,0.0648
8402,-1.5562,-10.0413,0.2083,-0.6006,0.1234,0.0629
8411,-1.5155,-9.9862,0.2394,-0.5846,0.1210,0.0618
8419,-1.5083,-10.0389,0.2346,-0.5708,0.1223,0.0621
8427,-1.5586,-9.9814,0.2873,-0.5534,0.1218,0.0592
8435,-1.5634,-9.9192,0.2682,-0.5367,0.1244,0.0568
8443,-1.4964,-9.9910,0.3519,-0.5215,0.1204,0.0568
8451,-1.5802,-9.9192,0.1963,-0.5060,0.1236,0.0541
8459,-1.5083,-9.8474,0.2682,-0.4903,0.1228,0.0544
8467,-1.5347,-9.8282,0.2227,-0.4719,0.1228,0.0549
8475,-1.5371,-9.7947,0.2418,-0.4538,0.1223,0.0538
8483,-1.5203,-9.8186,0.2586,-0.4383,0.1170,0.0528
8491,-1.4700,-9.8162,0.3304,-0.4191,0.1140,0.0496
8499,-1.4868,-9.8162,0.1772,-0.4000,0.1162,0.0509
8507,-1.4748,-9.7348,0.2729,-0.3818,0.1122,0.0506
8515,-1.5012,-9.7636,0.2705,-0.3648,0.1090,0.0493
8523,-1.5107,-9.6989,0.3615,-0.3456,0.1095,0.0512
8531,-1.4868,-9.6917,0.2418,-0.3259,0.1069,0.0469
8539,-1.5107,-9.6582,0.2562,-0.3019,0.1031,0.0450
8547,-1.4916,-9.6367,0.2921,-0.2819,0.0981,0.0434
8555,-1.5275,-9.6774,0.2801,-0.2598,0.0965,0.0413
8563,-1.4581,-9.6558,0.3184,-0.2403,0.0927,0.0402
8571,-1.4892,-9.6510,0.3112,-0.2169,0.0893,0.0384
8579,-1.4605,-9.5720,0.3519,-0.1961,0.0826,0.0373
8587,-1.4437,-9.5624,0.2634,-0.1711,0.0789,0.0365
8595,-1.4078,-9.6031,0.3256,-0.1492,0.0762,0.0360
8603,-1.4676,-9.5720,0.3065,-0.1271,0.0695,0.0301
8611,-1.4461,-9.6031,0.3280,-0.1037,0.0658,0.0266
8620,-1.4581,-9.6055,0.3567,-0.0821,0.0602,0.0264
8627,-1.5275,-9.5433,0.2610,-0.0573,0.0560,0.0224
8635,-1.4461,-9.5624,0.3232,-0.0376,0.0512,0.0195
8643,-1.5131,-9.6127,0.3448,-0.0115,0.0400,0.0197
8651,-1.4940,-9.5888,0.2610,0.0120,0.0362,0.0149
8659,-1.4748,-9.5529,0.3017,0.0370,0.0309,0.0112
8667,-1.4676,-9.5792,0.2729,0.0616,0.0208,0.0077
8675,-1.4844,-9.5816,0.3376,0.0839,0.0147,0.0037
8683,-1.4653,-9.5289,0.2658,0.1079,0.0056,0.0043
8691,-1.4341,-9.5816,0.2179,0.1327,-0.0029,0.0016
8699,-1.4964,-9.5840,0.2945,0.1522,-0.0131,-0.0011
8708,-1.4605,-9.5265,0.2849,0.1756,-0.0165,-0.0040
8715,-1.4629,-9.5457,0.3448,0.1948,-0.0269,-0.0040
8723,-1.4868,-9.5696,0.2346,0.2158,-0.0328,-0.0043
8731,-1.4868,-9.6678,0.2825,0.2382,-0.0448,-0.0056
8739,-1.4844,-9.6223,0.2921,0.2582,-0.0517,-0.0053
8748,-1.5203,-9.6486,0.2849,0.2777,-0.0600,-0.0080
8755,-1.4940,-9.6175,0.2562,0.3022,-0.0701,-0.0075
8763,-1.4844,-9.6558,0.2993,0.3216,-0.0794,-0.0101
8771,-1.4868,-9.6582,0.2682,0.3392,-0.0906,-0.0107
8779,-1.4700,-9.6510,0.1772,0.3605,-0.0946,-0.0069
8787,-1.5347,-9.7276,0.2586,0.3816,-0.1053,-0.0072
8795,-1.4964,-9.7564,0.3017,0.3997,-0.1175,-0.0083
8803,-1.4700,-9.7659,0.2993,0.4210,-0.1258,-0.0080
8811,-1.5371,-9.7923,0.2825,0.4415,-0.1300,-0.0080
8819,-1.5275,-9.8114,0.2490,0.4580,-0.1380,-0.0101
8827,-1.4748,-9.8138,0.1580,0.4751,-0.1471,-0.0083
8836,-1.5227,-9.8450,0.2059,0.4903,-0.1522,-0.0093
8843,-1.5467,-9.8474,0.2442,0.5033,-0.1580,-0.0096
8851,-1.4844,-9.8976,0.1844,0.5225,-0.1655,-0.0139
8859,-1.5347,-9.9790,0.2897,0.5332,-0.1719,-0.0152
8867,-1.5012,-9.9766,0.1628,0.5542,-0.1769,-0.0163
8876,-1.5323,-9.9479,0.2634,0.5692,-0.1807,-0.0173
8883,-1.5251,-9.9407,0.3232,0.5780,-0.1804,-0.0187
8891,-1.5203,-9.9838,0.3065,0.5902,-0.1892,-0.0192
8899,-1.5850,-10.0365,0.1389,0.6041,-0.1863,-0.0200
8907,-1.5754,-10.0149,0.1963,0.6171,-0.1868,-0.0240
8915,-1.5874,-10.0963,0.2251,0.6281,-0.1905,-0.0256
8924,-1.5634,-10.0509,0.1460,0.6344,-0.1919,-0.0237
8931,-1.5778,-10.0772,0.1724,0.6491,-0.1932,-0.0293
8939,-1.5419,-10.1490,0.1844,0.6590,-0.1927,-0.0290
8947,-1.5682,-10.1897,0.1772,0.6718,-0.1948,-0.0296
8955,-1.4940,-10.1059,0.1676,0.6808,-0.1974,-0.0330
8964,-1.5706,-10.2472,0.2107,0.6925,-0.1966,-0.0346
8971,-1.5993,-10.1945,0.2346,0.6979,-0.1985,-0.0384
8979,-1.5514,-10.2304,0.1724,0.7075,-0.1966,-0.0405
8987,-1.5874,-10.2256,0.2466,0.7149,-0.1969,-0.0400
8995,-1.5658,-10.3022,0.2394,0.7258,-0.1988,-0.0392
9004,-1.5730,-10.3142,0.2131,0.7336,-0.2006,-0.0437
9012,-1.6137,-10.3046,0.1221,0.7418,-0.1972,-0.0469
9019,-1.6305,-10.3382,0.1532,0.7469,-0.1982,-0.0442
9027,-1.5778,-10.3884,0.1676,0.7584,-0.1988,-0.0434
9035,-1.6233,-10.3262,0.1772,0.7605,-0.1969,-0.0440
9043,-1.5514,-10.3525,0.1700,0.7671,-0.2004,-0.0434
9052,-1.5969,-10.3549,0.1125,0.7746,-0.1956,-0.0472
9059,-1.5634,-10.3837,0.2586,0.7794,-0.1956,-0.0453
9067,-1.6328,-10.3884,0.1269,0.7839,-0.1966,-0.0474
9075,-1.6712,-10.3669,0.2035,0.7898,-0.1988,-0.0434
9083,-1.6113,-10.3980,0.1030,0.7933,-0.1953,-0.0464
9092,-1.6376,-10.3621,0.1628,0.7981,-0.1945,-0.0440
9100,-1.5610,-10.3980,0.2179,0.7981,-0.1974,-0.0421
9107,-1.6520,-10.3932,0.1796,0.7991,-0.1945,-0.0434
9115,-1.6712,-10.3980,0.1077,0.8018,-0.1924,-0.0437
9123,-1.6041,-10.4363,0.0982,0.8052,-0.1921,-0.0450
9132,-1.6376,-10.3980,0.1317,0.8034,-0.1905,-0.0410
9140,-1.5778,-10.4124,0.1437,0.8015,-0.1905,-0.0413
9147,-1.6161,-10.4148,0.2011,0.8010,-0.1897,-0.0421
9155,-1.6688,-10.3837,0.0622,0.7965,-0.1865,-0.0397
9163,-1.6352,-10.3980,0.1173,0.7935,-0.1823,-0.0352
9171,-1.6305,-10.3477,0.1389,0.7898,-0.1833,-0.0370
9180,-1.6376,-10.3932,0.0814,0.7855,-0.1855,-0.0384
9188,-1.5993,-10.3789,0.1221,0.7775,-0.1809,-0.0357
9195,-1.5897,-10.4124,0.1820,0.7722,-0.1753,-0.0373
9203,-1.6233,-10.2903,0.1508,0.7687,-0.1775,-0.0344
9211,-1.5969,-10.3477,0.1628,0.7615,-0.1713,-0.0338
9220,-1.5299,-10.3549,0.1053,0.7549,-0.1743,-0.0328
9228,-1.6257,-10.3046,0.0622,0.7456,-0.1681,-0.0325
9235,-1.6233,-10.2663,0.1197,0.7365,-0.1684,-0.0322
9243,-1.6759,-10.2975,0.1317,0.7256,-0.1657,-0.0352
9251,-1.6089,-10.2161,0.0934,0.7202,-0.1636,-0.0338
9260,-1.6065,-10.2185,0.0599,0.7112,-0.1593,-0.0330
9268,-1.6113,-10.1993,0.1604,0.6955,-0.1601,-0.0314
9276,-1.5850,-10.2568,0.1053,0.6877,-0.1583,-0.0309
9283,-1.5826,-10.1873,0.0910,0.6728,-0.1583,-0.0269
9291,-1.6209,-10.1347,0.0599,0.6619,-0.1511,-0.0312
9299,-1.5347,-10.0987,0.0934,0.6534,-0.1500,-0.0285
9308,-1.5874,-10.1514,0.0670,0.6382,-0.1468,-0.0285
9316,-1.5179,-10.1370,0.0622,0.6243,-0.1503,-0.0245
9323,-1.6137,-10.0580,0.0910,0.6139,-0.1442,-0.0272
9331,-1.5993,-10.0485,0.0766,0.6003,-0.1474,-0.0232
9339,-1.5921,-10.0580,0.0575,0.5886,-0.1386,-0.0226
9348,-1.6137,-9.9910,0.0503,0.5758,-0.1359,-0.0213
9356,-1.5514,-9.9790,0.0144,0.5585,-0.1340,-0.0189
9364,-1.5347,-9.9431,0.1006,0.5441,-0.1362,-0.0181
9371,-1.6448,-9.9910,0.1987,0.5324,-0.1335,-0.0147
9379,-1.5610,-9.8761,0.1508,0.5161,-0.1271,-0.0101
9388,-1.5706,-9.9240,0.0670,0.5063,-0.1247,-0.0088
9396,-1.5227,-9.9192,0.0479,0.4911,-0.1244,-0.0091
9404,-1.5083,-9.8617,0.0694,0.4738,-0.1215,-0.0051
9411,-1.5730,-9.8569,0.0862,0.4554,-0.1178,-0.0045
9419,-1.5538,-9.7947,0.0718,0.4407,-0.1148,0.0011
9427,-1.5538,-9.8138,0.1197,0.4229,-0.1119,0.0005
9436,-1.5155,-9.7947,0.0862,0.4082,-0.1079,0.0048
9444,-1.4868,-9.8019,0.1077,0.3877,-0.1092,0.0075
9451,-1.5634,-9.7276,0.1030,0.3720,-0.1018,0.0117
9459,-1.5538,-9.7348,0.0048,0.3563,-0.0991,0.0131
9467,-1.5179,-9.7061,0.1053,0.3363,-0.0949,0.0171
9476,-1.5562,-9.7300,-0.0263,0.3190,-0.0925,0.0160
9484,-1.5443,-9.6845,0.0239,0.2979,-0.0911,0.0155
9492,-1.5443,-9.7300,-0.0048,0.2774,-0.0829,0.0184
9499,-1.5131,-9.6223,0.0551,0.2601,-0.0797,0.0211
9507,-1.5993,-9.6175,0.0168,0.2403,-0.0789,0.0213
9516,-1.4533,-9.6223,0.0622,0.2220,-0.0698,0.0266
9524,-1.5036,-9.5720,0.0527,0.1988,-0.0669,0.0285
9532,-1.4700,-9.6055,-0.0335,0.1775,-0.0634,0.0282
9539,-1.5060,-9.5864,0.0335,0.1569,-0.0592,0.0296
9547,-1.5179,-9.5816,0.1053,0.1399,-0.0525,0.0322
9555,-1.5371,-9.6151,0.0168,0.1188,-0.0506,0.0333
9564,-1.4988,-9.5720,0.0000,0.0957,-0.0416,0.0360
9572,-1.5419,-9.5864,0.1053,0.0714,-0.0368,0.0376
9580,-1.5514,-9.5960,0.0431,0.0488,-0.0301,0.0413
9587,-1.5179,-9.5600,0.0168,0.0274,-0.0266,0.0469
9595,-1.4700,-9.6103,0.0072,0.0093,-0.0203,0.0458
9604,-1.4796,-9.5026,0.0862,-0.0157,-0.0171,0.0480
9612,-1.4437,-9.5864,0.1676,-0.0365,-0.0075,0.0509
9620,-1.4461,-9.5648,-0.0096,-0.0546,-0.0029,0.0533
9627,-1.4605,-9.5768,0.0646,-0.0749,0.0013,0.0517
9635,-1.5083,-9.6055,0.0814,-0.0962,0.0109,0.0546
9644,-1.5443,-9.5936,0.0000,-0.1167,0.0155,0.0568
9652,-1.5179,-9.5696,0.1101,-0.1343,0.0226,0.0573
9660,-1.5658,-9.5864,0.0718,-0.1511,0.0264,0.0613
9668,-1.4748,-9.6223,0.0814,-0.1721,0.0336,0.0655
9675,-1.5036,-9.6558,0.0934,-0.1908,0.0416,0.0642
9683,-1.5514,-9.6007,0.1173,-0.2097,0.0488,0.0701
9692,-1.5203,-9.6606,0.0359,-0.2302,0.0549,0.0703
9700,-1.4772,-9.6750,0.0000,-0.2494,0.0602,0.0719
9708,-1.4724,-9.6845,0.0790,-0.2670,0.0642,0.0746
9715,-1.5203,-9.6917,0.0958,-0.2867,0.0725,0.0767
9723,-1.5083,-9.6582,0.1245,-0.3062,0.0813,0.0807
9732,-1.5131,-9.6798,0.1030,-0.3264,0.0847,0.0850
9740,-1.5395,-9.7061,0.1053,-0.3448,0.0898,0.0861
9748,-1.4940,-9.7420,0.0431,-0.3629,0.0989,0.0866
9756,-1.5179,-9.7923,0.1149,-0.3853,0.1058,0.0879
9763,-1.5275,-9.8162,0.0622,-0.4034,0.1095,0.0887
9772,-1.5012,-9.8426,0.0479,-0.4199,0.1170,0.0911
9780,-1.5299,-9.8881,0.2011,-0.4383,0.1234,0.0887
9788,-1.5012,-9.8162,0.0838,-0.4525,0.1303,0.0911
9796,-1.5323,-9.8090,0.1197,-0.4700,0.1391,0.0933
9803,-1.5179,-9.8928,0.1197,-0.4842,0.1399,0.0930
9811,-1.5802,-9.8833,0.2011,-0.4980,0.1450,0.0986
9820,-1.5467,-9.9551,0.1077,-0.5079,0.1484,0.0962
9828,-1.5251,-9.8857,0.1365,-0.5268,0.1535,0.0965
9836,-1.4940,-9.9072,0.1053,-0.5396,0.1593,0.0983
9844,-1.5443,-10.0389,0.1413,-0.5476,0.1660,0.0997
9851,-1.5802,-9.9814,0.1676,-0.5617,0.1649,0.0970
9860,-1.5514,-9.9862,0.2035,-0.5726,0.1692,0.0989
9868,-1.5850,-10.0317,0.0910,-0.5830,0.1740,0.1010
9876,-1.5490,-10.0580,0.1030,-0.5953,0.1767,0.0967
9884,-1.6137,-10.0437,0.2083,-0.6046,0.1775,0.0999
9891,-1.5802,-10.0748,0.2107,-0.6107,0.1828,0.1013
9900,-1.5443,-10.1418,0.1844,-0.6243,0.1815,0.0991
9908,-1.5874,-10.1035,0.1844,-0.6323,0.1868,0.0983
9916,-1.5586,-10.1418,0.1580,-0.6395,0.1860,0.0970
9924,-1.5754,-10.1801,0.1269,-0.6502,0.1908,0.0975
9932,-1.6113,-10.2089,0.2274,-0.6568,0.1865,0.0986
9939,-1.5562,-10.1323,0.1700,-0.6640,0.1905,0.0949
9948,-1.5969,-10.1658,0.2562,-0.6707,0.1889,0.0991
9956,-1.6328,-10.2376,0.1604,-0.6784,0.1857,0.1005
9964,-1.6113,-10.2113,0.1652,-0.6829,0.1879,0.1010
9972,-1.5969,-10.2639,0.2514,-0.6920,0.1857,0.0997
9979,-1.5682,-10.2711,0.2298,-0.6997,0.1801,0.1029
9988,-1.5874,-10.2615,0.2298,-0.7040,0.1815,0.0981
9996,-1.5419,-10.2855,0.1891,-0.7139,0.1748,0.1015
10004,-1.5921,-10.3262,0.1628,-0.7197,0.1769,0.1005
10012,-1.5945,-10.2783,0.1772,-0.7264,0.1751,0.1018
10020,-1.5490,-10.2759,0.2346,-0.7312,0.1732,0.1005
10028,-1.6089,-10.3022,0.1820,-0.7368,0.1711,0.1010
10036,-1.5897,-10.3860,0.2322,-0.7429,0.1687,0.1034
10044,-1.5874,-10.3118,0.1748,-0.7469,0.1623,0.1013
10052,-1.5945,-10.3070,0.1413,-0.7493,0.1599,0.0997
10060,-1.6257,-10.3453,0.2849,-0.7498,0.1577,0.0997
10067,-1.5730,-10.2879,0.2825,-0.7568,0.1567,0.0981
10076,-1.6233,-10.3477,0.1628,-0.7586,0.1551,0.1005
10084,-1.5658,-10.3358,0.1939,-0.7592,0.1516,0.0994
10092,-1.5969,-10.3477,0.2610,-0.7621,0.1516,0.0983
10100,-1.6376,-10.3525,0.2227,-0.7589,0.1455,0.0991
10108,-1.6328,-10.3262,0.1772,-0.7610,0.1431,0.0965
10116,-1.6472,-10.3406,0.2322,-0.7594,0.1386,0.0957
10124,-1.5802,-10.3358,0.1365,-0.7565,0.1402,0.0949
10132,-1.5778,-10.3166,0.1748,-0.7554,0.1380,0.0933
10140,-1.5897,-10.3166,0.2298,-0.7509,0.1348,0.0906
10148,-1.6185,-10.3118,0.2753,-0.7474,0.1311,0.0933
10156,-1.6592,-10.3382,0.2370,-0.7445,0.1295,0.0893
10164,-1.6017,-10.2615,0.3184,-0.7400,0.1276,0.0903
10172,-1.5538,-10.2496,0.2370,-0.7306,0.1258,0.0855
10180,-1.5897,-10.2687,0.3232,-0.7226,0.1258,0.0845
10188,-1.5131,-10.2687,0.2753,-0.7165,0.1207,0.0842
10196,-1.6376,-10.2304,0.3017,-0.7075,0.1204,0.0829
10204,-1.6161,-10.1873,0.2274,-0.6952,0.1186,0.0818
10212,-1.5107,-10.1562,0.2418,-0.6893,0.1164,0.0786
10220,-1.5538,-10.1418,0.2274,-0.6792,0.1143,0.0810
10228,-1.5658,-10.2065,0.2825,-0.6656,0.1178,0.0810
10236,-1.5802,-10.1873,0.2131,-0.6550,0.1122,0.0773
10244,-1.5610,-10.0987,0.2873,-0.6448,0.1135,0.0770
10252,-1.5658,-10.1323,0.2370,-0.6331,0.1095,0.0775
10260,-1.4892,-10.1203,0.2873,-0.6193,0.1119,0.0738
10268,-1.5107,-10.0700,0.2586,-0.6115,0.1077,0.0727
10276,-1.5826,-10.0820,0.2849,-0.5947,0.1095,0.0709
10284,-1.5634,-10.0676,0.2969,-0.5812,0.1127,0.0703
10292,-1.5562,-9.9695,0.2969,-0.5689,0.1092,0.0687
10300,-1.5538,-9.9718,0.2059,-0.5497,0.1103,0.0709
10308,-1.5586,-9.9766,0.2897,-0.5423,0.1098,0.0648
10316,-1.5538,-9.9958,0.2586,-0.5263,0.1108,0.0648
10324,-1.5562,-9.9934,0.3041,-0.5105,0.1092,0.0645
10332,-1.5897,-9.9383,0.2801,-0.4988,0.1103,0.0602
10340,-1.5227,-9.8737,0.3543,-0.4802,0.1100,0.0600
10348,-1.5036,-9.9335,0.2777,-0.4679,0.1114,0.0605
10356,-1.5179,-9.8426,0.2945,-0.4519,0.1098,0.0552
10364,-1.5323,-9.9000,0.1700,-0.4389,0.1122,0.0538
10372,-1.4844,-9.8162,0.2251,-0.4207,0.1082,0.0544
10380,-1.4533,-9.7827,0.2993,-0.4032,0.1055,0.0485
10388,-1.4413,-9.7516,0.2107,-0.3882,0.1082,0.0490
10396,-1.4748,-9.7779,0.3424,-0.3704,0.1045,0.0464
10404,-1.5107,-9.7252,0.2753,-0.3549,0.1023,0.0418
10413,-1.4940,-9.7683,0.3232,-0.3376,0.0989,0.0432
10420,-1.5658,-9.7276,0.2562,-0.3227,0.0989,0.0408
10428,-1.4892,-9.7229,0.2873,-0.3035,0.0967,0.0346
10436,-1.4389,-9.6750,0.2538,-0.2862,0.0954,0.0333
10444,-1.4892,-9.6367,0.3472,-0.2675,0.0922,0.0312
10452,-1.5083,-9.6774,0.3184,-0.2486,0.0893,0.0322
10460,-1.4892,-9.7181,0.3496,-0.2329,0.0842,0.0277
10468,-1.5036,-9.6798,0.2322,-0.2094,0.0845,0.0266
10476,-1.4653,-9.6558,0.2825,-0.1887,0.0802,0.0234
10484,-1.4485,-9.6558,0.2442,-0.1708,0.0746,0.0218
10492,-1.5203,-9.6391,0.2873,-0.1492,0.0711,0.0192
10501,-1.5036,-9.6079,0.2274,-0.1263,0.0666,0.0163
10508,-1.4988,-9.6438,0.2562,-0.1090,0.0626,0.0144
10516,-1.4629,-9.6343,0.2562,-0.0869,0.0568,0.0133
10524,-1.5060,-9.5648,0.2394,-0.0634,0.0520,0.0123
10532,-1.4700,-9.5720,0.2969,-0.0426,0.0448,0.0104
10541,-1.4748,-9.5433,0.3112,-0.0205,0.0397,0.0101
10548,-1.4653,-9.5600,0.3639,-0.0029,0.0322,0.0064
10556,-1.4796,-9.6678,0.2035,0.0192,0.0293,0.0040
10564,-1.4653,-9.5505,0.2610,0.0408,0.0205,0.0075
10572,-1.4988,-9.5768,0.2203,0.0597,0.0136,0.0051
10580,-1.4676,-9.5912,0.3328,0.0877,0.0075,0.0019
10589,-1.4413,-9.5864,0.2682,0.1053,0.0011,0.0003
10596,-1.4700,-9.6103,0.3112,0.1276,-0.0077,-0.0008
10604,-1.4964,-9.5600,0.2945,0.1468,-0.0141,-0.0037
10612,-1.5179,-9.6007,0.2514,0.1660,-0.0232,-0.0029
10620,-1.4653,-9.6654,0.3591,0.1855,-0.0293,-0.0035
10629,-1.4748,-9.6271,0.2825,0.2052,-0.0405,-0.0043
10636,-1.4988,-9.6367,0.2562,0.2276,-0.0488,-0.0061
10644,-1.5299,-9.6438,0.3160,0.2449,-0.0549,-0.0083
10652,-1.5419,-9.6343,0.2442,0.2649,-0.0637,-0.0069
10660,-1.4820,-9.6391,0.2682,0.2846,-0.0735,-0.0088
10669,-1.4940,-9.7348,0.2418,0.3019,-0.0821,-0.0107
10677,-1.5131,-9.7516,0.2514,0.3219,-0.0914,-0.0123
10684,-1.5060,-9.7324,0.2131,0.3400,-0.0967,-0.0141
10692,-1.5227,-9.7444,0.2251,0.3584,-0.1026,-0.0160
10700,-1.4868,-9.7755,0.3136,0.3797,-0.1098,-0.0152
10708,-1.5155,-9.8019,0.2059,0.3960,-0.1178,-0.0179
10717,-1.4916,-9.7755,0.2155,0.4114,-0.1276,-0.0192
10724,-1.5347,-9.8043,0.2586,0.4277,-0.1351,-0.0179
10732,-1.5203,-9.8450,0.2131,0.4442,-0.1407,-0.0221
10740,-1.5060,-9.7779,0.2083,0.4586,-0.1471,-0.0213
10748,-1.5778,-9.9240,0.1867,0.4698,-0.1511,-0.0266
10757,-1.5874,-9.9311,0.2586,0.4850,-0.1553,-0.0285
10764,-1.4988,-9.9431,0.1652,0.4946,-0.1639,-0.0282
10772,-1.5155,-9.9527,0.1724,0.5097,-0.1687,-0.0298
10780,-1.5275,-9.8689,0.2251,0.5204,-0.1679,-0.0298
10788,-1.5874,-9.9024,0.1437,0.5332,-0.1737,-0.0290
10797,-1.4796,-9.9766,0.2179,0.5433,-0.1737,-0.0330
10805,-1.5299,-9.9886,0.2777,0.5566,-0.1753,-0.0325
10812,-1.5610,-9.9695,0.2346,0.5646,-0.1799,-0.0322
10820,-1.5323,-10.0269,0.1772,0.5777,-0.1780,-0.0328
10828,-1.5610,-10.0437,0.0814,0.5894,-0.1801,-0.0360
10836,-1.6065,-10.0772,0.2179,0.5945,-0.1831,-0.0365
10845,-1.5969,-10.0963,0.1748,0.6091,-0.1852,-0.0362
10852,-1.5467,-10.1490,0.1413,0.6169,-0.1849,-0.0357
10860,-1.6017,-10.0963,0.1915,0.6302,-0.1852,-0.0354
10868,-1.5586,-10.1131,0.1772,0.6360,-0.1823,-0.0357
10876,-1.5634,-10.2304,0.0862,0.6403,-0.1807,-0.0376
10885,-1.5443,-10.1706,0.1891,0.6520,-0.1855,-0.0389
10893,-1.5993,-10.1730,0.1197,0.6534,-0.1841,-0.0394
10900,-1.5251,-10.2161,0.1844,0.6680,-0.1815,-0.0426
10908,-1.5897,-10.1825,0.1269,0.6723,-0.1817,-0.0397
10916,-1.6137,-10.2256,0.1772,0.6787,-0.1804,-0.0405
10925,-1.6017,-10.2304,0.1580,0.6877,-0.1804,-0.0413
10933,-1.5969,-10.2352,0.1652,0.6957,-0.1764,-0.0402
10940,-1.6113,-10.2256,0.1053,0.6987,-0.1785,-0.0402
10948,-1.5538,-10.2711,0.1532,0.7093,-0.1740,-0.0410
10956,-1.6376,-10.2472,0.1125,0.7155,-0.1743,-0.0405
10964,-1.6089,-10.2544,0.1030,0.7197,-0.1743,-0.0386
10973,-1.6161,-10.2615,0.0551,0.7250,-0.1737,-0.0448
10981,-1.5921,-10.2951,0.1748,0.7285,-0.1689,-0.0442
10988,-1.6017,-10.2855,0.2011,0.7346,-0.1727,-0.0453
10996,-1.6017,-10.3142,0.1149,0.7354,-0.1628,-0.0442
11004,-1.6568,-10.2735,0.1437,0.7405,-0.1631,-0.0434
11013,-1.6424,-10.3621,0.2155,0.7408,-0.1652,-0.0434
11021,-1.6065,-10.2975,0.0742,0.7394,-0.1647,-0.0461
11028,-1.5634,-10.3453,0.0838,0.7402,-0.1631,-0.0448
11036,-1.6305,-10.3142,0.1508,0.7389,-0.1607,-0.0469
11044,-1.5993,-10.3046,0.0431,0.7368,-0.1612,-0.0458
11053,-1.5945,-10.3406,0.0814,0.7373,-0.1556,-0.0440
11061,-1.5778,-10.3406,0.1987,0.7325,-0.1561,-0.0432
11069,-1.5562,-10.2639,0.0622,0.7288,-0.1545,-0.0402
11076,-1.5754,-10.3238,0.0694,0.7256,-0.1559,-0.0397
11084,-1.6400,-10.3070,0.1030,0.7192,-0.1567,-0.0392
11092,-1.5754,-10.2424,0.1030,0.7165,-0.1508,-0.0386
11101,-1.5921,-10.2831,0.1915,0.7088,-0.1527,-0.0376
11109,-1.5754,-10.1921,0.1939,0.7024,-0.1490,-0.0378
11116,-1.5826,-10.2520,0.0239,0.6976,-0.1479,-0.0362
11124,-1.6089,-10.2831,0.0383,0.6901,-0.1484,-0.0325
11132,-1.6376,-10.1873,0.0383,0.6787,-0.1482,-0.0320
11141,-1.6305,-10.2017,0.1341,0.6752,-0.1466,-0.0306
11149,-1.5490,-10.2448,0.0958,0.6643,-0.1412,-0.0272
11157,-1.6137,-10.1370,0.0718,0.6550,-0.1434,-0.0269
11164,-1.5275,-10.1682,0.0742,0.6446,-0.1383,-0.0266
11172,-1.5275,-10.1251,0.1293,0.6358,-0.1410,-0.0274
11181,-1.5586,-10.1586,0.1772,0.6235,-0.1423,-0.0240
11189,-1.5993,-10.0772,0.2203,0.6123,-0.1402,-0.0216
11197,-1.5969,-10.1251,0.1221,0.6030,-0.1423,-0.0163
11204,-1.5706,-10.0892,0.1149,0.5905,-0.1338,-0.0171
11212,-1.5802,-10.0269,0.0479,0.5790,-0.1332,-0.0176
11220,-1.5706,-10.0389,0.0982,0.5694,-0.1338,-0.0117
11229,-1.6328,-10.0413,0.0790,0.5556,-0.1298,-0.0128
11237,-1.5538,-10.0078,0.0646,0.5473,-0.1332,-0.0091
11245,-1.6065,-10.0149,0.0838,0.5337,-0.1287,-0.0085
11252,-1.4988,-10.0054,0.0670,0.5183,-0.1274,-0.0099
11260,-1.5107,-9.9790,0.1197,0.5081,-0.1279,-0.0064
11269,-1.5586,-9.9455,0.0575,0.4956,-0.1255,-0.0053
11277,-1.5874,-9.9742,0.1317,0.4818,-0.1223,-0.0064
11285,-1.5586,-9.9671,0.1269,0.4676,-0.1196,-0.0037
11292,-1.5347,-9.8785,0.0599,0.4541,-0.1204,0.0005
11300,-1.5251,-9.9168,0.1030,0.4399,-0.1148,0.0040
11309,-1.5227,-9.8617,0.1173,0.4245,-0.1154,0.0008
11317,-1.5850,-9.8450,0.0670,0.4125,-0.1140,0.0040
11325,-1.5155,-9.8019,0.0239,0.3978,-0.1069,0.0067
11333,-1.5060,-9.8282,0.0527,0.3805,-0.1021,0.0067
11340,-1.4868,-9.7683,0.0886,0.3672,-0.1007,0.0093
11348,-1.5706,-9.7971,0.1987,0.3496,-0.0986,0.0120
11357,-1.5275,-9.7276,0.0622,0.3323,-0.0941,0.0152
11365,-1.5299,-9.7516,0.0742,0.3195,-0.0917,0.0144
11373,-1.4820,-9.7348,0.0694,0.3024,-0.0853,0.0165
11380,-1.4940,-9.7037,0.0503,0.2830,-0.0791,0.0181
11388,-1.5131,-9.7085,0.0359,0.2654,-0.0794,0.0168
11397,-1.5443,-9.6822,0.0958,0.2491,-0.0743,0.0232
11405,-1.5251,-9.6534,0.0311,0.2310,-0.0706,0.0258
11413,-1.5203,-9.6510,0.0000,0.2137,-0.0695,0.0285
11420,-1.4509,-9.6367,0.0910,0.1940,-0.0663,0.0309
11428,-1.5155,-9.6414,0.0718,0.1737,-0.0562,0.0306
11437,-1.5131,-9.5912,0.0192,0.1553,-0.0512,0.0357
11445,-1.4916,-9.6630,0.0407,0.1383,-0.0461,0.0376
11453,-1.5299,-9.6103,0.0551,0.1164,-0.0488,0.0386
11461,-1.4988,-9.6031,0.0910,0.0975,-0.0397,0.0389
11468,-1.5538,-9.5864,0.1413,0.0765,-0.0346,0.0421
11476,-1.5131,-9.6462,0.0838,0.0554,-0.0309,0.0466
11485,-1.5395,-9.6103,0.0862,0.0368,-0.0261,0.0509
11493,-1.4964,-9.6031,0.0503,0.0179,-0.0197,0.0522
11501,-1.4940,-9.6103,0.0766,-0.0008,-0.0128,0.0557
11508,-1.4820,-9.6271,0.0694,-0.0232,-0.0045,0.0608
11516,-1.4365,-9.6295,0.0742,-0.0408,0.0008,0.0602
11525,-1.5371,-9.5840,0.0575,-0.0605,0.0043,0.0650
11533,-1.5299,-9.6103,-0.0383,-0.0786,0.0109,0.0661
11541,-1.4820,-9.6271,0.1053,-0.0943,0.0173,0.0674
11549,-1.4413,-9.6007,0.0287,-0.1132,0.0245,0.0685
11556,-1.4772,-9.6127,0.0359,-0.1287,0.0277,0.0738
11565,-1.5275,-9.6414,0.0383,-0.1484,0.0357,0.0749
11573,-1.5323,-9.6127,0.0239,-0.1633,0.0386,0.0751
11581,-1.5562,-9.6774,0.1460,-0.1825,0.0472,0.0733
11589,-1.4892,-9.6534,0.0742,-0.2006,0.0562,0.0765
11596,-1.4533,-9.6295,0.0359,-0.2174,0.0578,0.0818
11604,-1.4964,-9.7899,0.0910,-0.2372,0.0618,0.0813
11613,-1.6472,-9.6893,0.0431,-0.2534,0.0690,0.0818
11621,-1.5371,-9.7636,0.0000,-0.2699,0.0759,0.0831
11629,-1.5060,-9.7276,0.0455,-0.2886,0.0805,0.0839
11637,-1.5036,-9.7252,0.0215,-0.3070,0.0871,0.0858
11644,-1.5060,-9.7564,0.0886,-0.3240,0.0951,0.0863
11653,-1.4916,-9.7037,0.1006,-0.3440,0.0951,0.0869
11661,-1.5658,-9.8282,0.1077,-0.3616,0.1039,0.0919
11669,-1.5203,-9.7899,0.1245,-0.3773,0.1055,0.0933
11677,-1.4389,-9.7899,0.1389,-0.3946,0.1135,0.0882
11684,-1.4748,-9.8234,0.1580,-0.4117,0.1167,0.0935
11693,-1.4509,-9.8857,0.1484,-0.4223,0.1210,0.0925
11701,-1.5634,-9.8881,0.0551,-0.4399,0.1226,0.0938
11709,-1.5371,-9.9240,0.1341,-0.4525,0.1343,0.0935
11717,-1.5347,-9.8952,0.1101,-0.4650,0.1362,0.0941
11725,-1.5754,-9.8976,0.0790,-0.4783,0.1415,0.0962
11732,-1.5012,-9.9503,0.1628,-0.4900,0.1431,0.0962
11741,-1.5419,-9.9264,0.1915,-0.5004,0.1439,0.0962
11749,-1.5275,-9.9910,0.1556,-0.5111,0.1479,0.0917
11757,-1.5730,-10.0078,0.1508,-0.5215,0.1500,0.0994
11765,-1.5490,-10.0054,0.1149,-0.5321,0.1487,0.0978
11772,-1.5299,-9.9599,0.1365,-0.5417,0.1532,0.1018
11781,-1.5586,-9.9766,0.2107,-0.5518,0.1548,0.1010
11789,-1.5826,-10.0413,0.1891,-0.5617,0.1585,0.1021
11797,-1.5730,-10.0126,0.1101,-0.5692,0.1545,0.1026
11805,-1.5634,-10.0820,0.1221,-0.5772,0.1569,0.1010
11813,-1.5562,-10.0987,0.1125,-0.5857,0.1575,0.1042
11821,-1.5730,-10.0820,0.1556,-0.5947,0.1577,0.1015
11829,-1.6017,-10.1299,0.1484,-0.5990,0.1583,0.1047
11837,-1.5921,-10.1155,0.1341,-0.6073,0.1596,0.1034
11845,-1.6233,-10.1658,0.1844,-0.6158,0.1577,0.1042
11853,-1.6520,-10.1059,0.2179,-0.6193,0.1575,0.1050
11860,-1.5730,-10.1179,0.2155,-0.6286,0.1556,0.1037
11869,-1.6376,-10.1801,0.2059,-0.6352,0.1543,0.1042
11877,-1.5347,-10.1586,0.1221,-0.6358,0.1540,0.1039
11885,-1.5778,-10.1538,0.1604,-0.6470,0.1537,0.1023
11893,-1.5586,-10.2232,0.1269,-0.6534,0.1588,0.1045
11901,-1.6137,-10.2639,0.1269,-0.6614,0.1545,0.1037
11909,-1.5299,-10.2280,0.1939,-0.6667,0.1527,0.1007
11917,-1.5993,-10.1562,0.2155,-0.6704,0.1479,0.1029
11925,-1.6185,-10.3358,0.2131,-0.6760,0.1484,0.1018
11933,-1.5730,-10.3046,0.1724,-0.6797,0.1498,0.1002
11941,-1.5874,-10.3070,0.2035,-0.6864,0.1474,0.0989
11949,-1.6352,-10.2424,0.2251,-0.6875,0.1439,0.0999
11957,-1.6041,-10.2807,0.1772,-0.6944,0.1476,0.0983
11965,-1.5778,-10.2304,0.2131,-0.6984,0.1436,0.0981
11973,-1.5921,-10.2568,0.1508,-0.6981,0.1410,0.0957
11981,-1.5562,-10.2879,0.2586,-0.6968,0.1410,0.0933
11990,-1.6089,-10.3190,0.2466,-0.7013,0.1388,0.0933
11997,-1.6089,-10.2879,0.2442,-0.7011,0.1383,0.0933
12005,-1.6161,-10.2185,0.2251,-0.7016,0.1351,0.0893
12013,-1.6161,-10.2400,0.1915,-0.7013,0.1311,0.0909
12021,-1.5850,-10.2735,0.2394,-0.6955,0.1324,0.0925
12029,-1.5634,-10.2472,0.1197,-0.6944,0.1300,0.0895
12037,-1.6089,-10.2161,0.2298,-0.6896,0.1252,0.0871
12045,-1.5921,-10.2592,0.1748,-0.6872,0.1303,0.0906
12053,-1.6376,-10.2615,0.1844,-0.6821,0.1276,0.0871
12061,-1.5467,-10.2208,0.2442,-0.6808,0.1263,0.0858
12069,-1.5754,-10.2113,0.2849,-0.6712,0.1223,0.0821
12077,-1.5634,-10.2400,0.2586,-0.6630,0.1228,0.0853
12085,-1.5682,-10.1778,0.2538,-0.6576,0.1210,0.0805
12093,-1.5490,-10.1347,0.1963,-0.6502,0.1210,0.0802
12101,-1.6137,-10.1658,0.1963,-0.6416,0.1212,0.0821
12109,-1.5610,-10.1706,0.3089,-0.6305,0.1170,0.0810
12118,-1.5107,-10.1897,0.2825,-0.6262,0.1167,0.0797
12125,-1.5754,-10.1514,0.2346,-0.6121,0.1154,0.0757
12133,-1.5706,-10.1490,0.2490,-0.6027,0.1151,0.0775
12141,-1.5778,-10.0628,0.2490,-0.5894,0.1167,0.0757
12149,-1.6041,-10.0916,0.2274,-0.5814,0.1148,0.0719
12157,-1.5275,-10.0149,0.3041,-0.5697,0.1138,0.0733
12165,-1.5586,-10.0628,0.1987,-0.5590,0.1130,0.0698
12173,-1.5299,-10.0437,0.1987,-0.5470,0.1106,0.0698
12181,-1.5969,-10.0269,0.3208,-0.5356,0.1122,0.0706
12189,-1.4964,-10.0078,0.2729,-0.5220,0.1148,0.0663
12197,-1.5155,-10.0173,0.3232,-0.5089,0.1092,0.0624
12206,-1.5730,-9.9383,0.3519,-0.4991,0.1111,0.0632
12213,-1.4653,-9.9766,0.1987,-0.4839,0.1122,0.0618
12221,-1.5490,-9.9551,0.2227,-0.4722,0.1100,0.0594
12229,-1.5275,-9.9288,0.2131,-0.4583,0.1111,0.0541
12237,-1.4748,-9.9311,0.3232,-0.4461,0.1074,0.0525
12246,-1.5107,-9.9120,0.2801,-0.4309,0.1079,0.0488
12253,-1.5371,-9.8761,0.2490,-0.4223,0.1053,0.0498
12261,-1.4844,-9.8210,0.3065,-0.4061,0.1047,0.0477
12269,-1.5203,-9.8521,0.2155,-0.3914,0.1039,0.0424
12277,-1.5490,-9.8450,0.2179,-0.3786,0.1015,0.0400
12285,-1.4724,-9.8306,0.1987,-0.3619,0.1026,0.0405
12294,-1.5036,-9.8090,0.3184,-0.3467,0.0949,0.0346
12301,-1.5083,-9.7707,0.3041,-0.3336,0.0997,0.0346
12309,-1.5107,-9.7707,0.3232,-0.3187,0.0909,0.0349
12317,-1.5179,-9.8019,0.2322,-0.3027,0.0906,0.0274
12325,-1.5179,-9.7396,0.2394,-0.2862,0.0909,0.0293
12334,-1.4772,-9.7324,0.2705,-0.2699,0.0855,0.0261
12341,-1.4988,-9.7348,0.3208,-0.2518,0.0823,0.0234
12349,-1.4844,-9.7013,0.3472,-0.2361,0.0805,0.0234
12357,-1.4150,-9.7013,0.2897,-0.2161,0.0751,0.0197
12365,-1.5299,-9.7157,0.2274,-0.2014,0.0695,0.0203
12374,-1.4964,-9.6558,0.2059,-0.1815,0.0687,0.0192
12382,-1.4461,-9.6247,0.2179,-0.1620,0.0640,0.0160
12389,-1.5347,-9.6247,0.3376,-0.1450,0.0597,0.0163
12397,-1.5227,-9.6558,0.3065,-0.1252,0.0549,0.0144
12405,-1.4844,-9.6558,0.2586,-0.1058,0.0506,0.0104
12413,-1.4844,-9.6414,0.2658,-0.0877,0.0424,0.0117
12422,-1.4916,-9.6534,0.3160,-0.0671,0.0330,0.0093
12429,-1.4964,-9.6630,0.2753,-0.0504,0.0296,0.0093
12437,-1.4700,-9.6702,0.2969,-0.0298,0.0200,0.0061
12445,-1.4940,-9.5840,0.2298,-0.0053,0.0160,0.0032
12453,-1.4437,-9.6031,0.3998,0.0083,0.0136,0.0053
12462,-1.4868,-9.6031,0.1844,0.0330,0.0048,0.0027
12470,-1.4676,-9.6869,0.2442,0.0498,-0.0027,0.0021
12477,-1.4988,-9.6558,0.2825,0.0711,-0.0045,-0.0019
12485,-1.4796,-9.6869,0.2394,0.0893,-0.0112,-0.0029
12493,-1.4940,-9.6391,0.2418,0.1090,-0.0208,-0.0032
12502,-1.4724,-9.6247,0.2155,0.1300,-0.0258,-0.0043
12510,-1.4916,-9.6702,0.2753,0.1466,-0.0328,-0.0048
12517,-1.5083,-9.6103,0.2011,0.1652,-0.0410,-0.0072
12525,-1.4629,-9.6822,0.3017,0.1828,-0.0477,-0.0091
12533,-1.5131,-9.6462,0.2490,0.1985,-0.0544,-0.0125
12541,-1.4700,-9.6893,0.2370,0.2172,-0.0602,-0.0155
12550,-1.4509,-9.6558,0.2322,0.2364,-0.0674,-0.0149
12558,-1.5060,-9.7516,0.2083,0.2507,-0.0703,-0.0181
12565,-1.4964,-9.7037,0.2251,0.2691,-0.0757,-0.0211
12573,-1.4820,-9.7300,0.2059,0.2862,-0.0847,-0.0200
12581,-1.4581,-9.7324,0.2442,0.3008,-0.0917,-0.0213
12590,-1.5203,-9.7133,0.2729,0.3208,-0.0978,-0.0240
12598,-1.5155,-9.8043,0.2801,0.3357,-0.1045,-0.0288
12605,-1.5299,-9.7971,0.2251,0.3560,-0.1095,-0.0290
12613,-1.5155,-9.7995,0.2107,0.3685,-0.1151,-0.0280
12621,-1.5203,-9.8497,0.2873,0.3893,-0.1172,-0.0293
12630,-1.5012,-9.8114,0.1891,0.4013,-0.1228,-0.0288
12638,-1.5538,-9.7995,0.2490,0.4159,-0.1260,-0.0296
12646,-1.5658,-9.8450,0.3232,0.4290,-0.1348,-0.0317
12653,-1.5036,-9.9288,0.2394,0.4415,-0.1380,-0.0325
12661,-1.5347,-9.9048,0.2466,0.4530,-0.1359,-0.0320
12669,-1.5586,-9.8593,0.2394,0.4674,-0.1402,-0.0320
12678,-1.5299,-9.9335,0.2466,0.4791,-0.1428,-0.0325
12686,-1.5036,-9.9072,0.2274,0.4874,-0.1436,-0.0328
12693,-1.5490,-9.9742,0.2634,0.4978,-0.1471,-0.0322
12701,-1.5754,-9.9575,0.2203,0.5103,-0.1474,-0.0330
12709,-1.5467,-9.9862,0.1700,0.5209,-0.1495,-0.0352
12718,-1.5682,-10.0078,0.2155,0.5287,-0.1482,-0.0344
12726,-1.5969,-9.9838,0.2490,0.5417,-0.1500,-0.0352
12733,-1.5490,-10.0221,0.1365,0.5489,-0.1532,-0.0341
12741,-1.5395,-10.0245,0.1724,0.5580,-0.1543,-0.0368
12749,-1.5443,-10.0556,0.1891,0.5684,-0.1527,-0.0346
12758,-1.5371,-10.0245,0.1891,0.5750,-0.1559,-0.0360
12766,-1.5850,-10.0916,0.1293,0.5822,-0.1551,-0.0341
12774,-1.5179,-10.0485,0.2203,0.5947,-0.1524,-0.0394
12781,-1.5634,-10.0820,0.2155,0.6009,-0.1532,-0.0381
12789,-1.6041,-10.0868,0.1460,0.6070,-0.1532,-0.0365
12797,-1.5514,-10.0916,0.1293,0.6113,-0.1561,-0.0418
12806,-1.5395,-10.1562,0.1532,0.6211,-0.1559,-0.0405
12814,-1.5850,-10.2041,0.2801,0.6254,-0.1543,-0.0416
12821,-1.5682,-10.1682,0.1915,0.6312,-0.1511,-0.0389
12829,-1.6400,-10.1993,0.2011,0.6382,-0.1516,-0.0418
12837,-1.6113,-10.1897,0.2179,0.6422,-0.1471,-0.0424
12846,-1.5921,-10.2017,0.0718,0.6488,-0.1484,-0.0408
12854,-1.5993,-10.2232,0.1269,0.6547,-0.1492,-0.0424
12862,-1.5586,-10.1825,0.1197,0.6595,-0.1498,-0.0434
12869,-1.6185,-10.2017,0.1820,0.6640,-0.1506,-0.0448
12877,-1.5562,-10.2041,0.0814,0.6664,-0.1490,-0.0453
12886,-1.6089,-10.2232,0.0718,0.6702,-0.1460,-0.0434
12894,-1.5730,-10.2232,0.2179,0.6739,-0.1479,-0.0450
12902,-1.5945,-10.2256,0.0742,0.6760,-0.1460,-0.0429
12909,-1.5802,-10.2089,0.2322,0.6787,-0.1482,-0.0424
12917,-1.5778,-10.2017,0.2059,0.6797,-0.1476,-0.0464
12925,-1.5802,-10.2496,0.1053,0.6765,-0.1498,-0.0450
12934,-1.6041,-10.1945,0.1269,0.6749,-0.1482,-0.0413
12942,-1.6233,-10.2280,0.0838,0.6763,-0.1458,-0.0418
12950,-1.6065,-10.2352,0.1460,0.6752,-0.1492,-0.0394
12957,-1.5945,-10.2137,0.2298,0.6707,-0.1463,-0.0381
12965,-1.5778,-10.2304,0.0982,0.6678,-0.1490,-0.0381
12974,-1.5682,-10.2137,0.1484,0.6640,-0.1450,-0.0376
12982,-1.5730,-10.2400,0.1125,0.6595,-0.1508,-0.0314
12990,-1.6472,-10.2113,0.0383,0.6552,-0.1492,-0.0333
12997,-1.5969,-10.1921,0.0335,0.6510,-0.1463,-0.0320
13005,-1.5969,-10.1993,0.0862,0.6459,-0.1487,-0.0288
13014,-1.6137,-10.1203,0.0646,0.6392,-0.1487,-0.0288
13022,-1.6233,-10.1825,0.1293,0.6302,-0.1463,-0.0269
13030,-1.6688,-10.1323,0.1437,0.6251,-0.1484,-0.0234
13038,-1.5802,-10.1490,0.1844,0.6203,-0.1476,-0.0224
13045,-1.6281,-10.1011,0.1413,0.6110,-0.1463,-0.0197
13053,-1.5682,-10.1227,0.1269,0.6049,-0.1455,-0.0195
13062,-1.5203,-10.1059,0.1221,0.5974,-0.1442,-0.0168
13070,-1.5921,-10.1179,0.1748,0.5844,-0.1412,-0.0184
13078,-1.5897,-10.0772,0.1197,0.5764,-0.1399,-0.0149
13085,-1.6352,-10.0844,0.0670,0.5668,-0.1351,-0.0144
13093,-1.5921,-10.0245,0.1867,0.5553,-0.1372,-0.0120
13102,-1.5802,-10.0461,0.1413,0.5460,-0.1354,-0.0088
13110,-1.5778,-10.0533,0.1293,0.5356,-0.1300,-0.0088
13118,-1.5802,-10.0437,0.0000,0.5223,-0.1327,-0.0077
13126,-1.5443,-9.9838,0.1293,0.5151,-0.1242,-0.0067
13133,-1.5682,-9.9527,0.0622,0.5052,-0.1250,-0.0056
13142,-1.5251,-9.9742,0.0646,0.4914,-0.1220,-0.0037
13150,-1.5562,-9.9503,0.1053,0.4804,-0.1188,-0.0051
13158,-1.5179,-9.9814,0.0958,0.4684,-0.1124,-0.0035
13166,-1.5538,-9.9072,0.1413,0.4559,-0.1148,0.0035
13173,-1.5514,-9.9431,0.0742,0.4458,-0.1069,-0.0019
13181,-1.5036,-9.9192,0.0910,0.4354,-0.1090,0.0016
13190,-1.5658,-9.8665,0.0455,0.4202,-0.1053,0.0019
13198,-1.5107,-9.8809,0.0862,0.4109,-0.1010,0.0059
13206,-1.5897,-9.8378,0.0766,0.3941,-0.0981,0.0072
13214,-1.5610,-9.8617,0.0838,0.3834,-0.0943,0.0067
13221,-1.5419,-9.8138,0.0694,0.3656,-0.0914,0.0080
13230,-1.5131,-9.7875,0.1604,0.3536,-0.0890,0.0107
13238,-1.5012,-9.8114,0.0335,0.3387,-0.0837,0.0117
13246,-1.4940,-9.7683,0.0503,0.3264,-0.0831,0.0139
13254,-1.5562,-9.7683,0.0479,0.3144,-0.0770,0.0160
13261,-1.5395,-9.7372,0.0886,0.3006,-0.0759,0.0200
13270,-1.5778,-9.7612,0.0886,0.2774,-0.0741,0.0232
13278,-1.4892,-9.7683,0.1293,0.2659,-0.0663,0.0264
13286,-1.4892,-9.6941,0.0359,0.2494,-0.0650,0.0288
13294,-1.5562,-9.6774,0.0742,0.2318,-0.0594,0.0304
13301,-1.5275,-9.7133,0.0287,0.2153,-0.0565,0.0365
13309,-1.4844,-9.6941,0.0982,0.2004,-0.0525,0.0346
13318,-1.4796,-9.7516,0.0455,0.1836,-0.0501,0.0400
13326,-1.4868,-9.6869,0.0215,0.1647,-0.0482,0.0418
13334,-1.5634,-9.6941,0.0144,0.1495,-0.0429,0.0448
13342,-1.5945,-9.6295,0.0000,0.1314,-0.0373,0.0477
13349,-1.4892,-9.6295,0.1748,0.1132,-0.0349,0.0498
13358,-1.5443,-9.6893,0.0862,0.0943,-0.0277,0.0525
13366,-1.4892,-9.6247,0.0120,0.0778,-0.0250,0.0512
13374,-1.5323,-9.5864,0.1221,0.0573,-0.0211,0.0570
13382,-1.5371,-9.6486,0.0072,0.0429,-0.0171,0.0589
13389,-1.5227,-9.6438,0.0766,0.0248,-0.0093,0.0608
13398,-1.5012,-9.6223,0.0742,0.0059,-0.0083,0.0600
13406,-1.5251,-9.6319,0.0886,-0.0131,-0.0040,0.0637
13414,-1.5826,-9.6223,0.0838,-0.0306,0.0027,0.0663
13422,-1.4844,-9.6319,0.0048,-0.0498,0.0075,0.0679
13430,-1.5419,-9.6606,0.0910,-0.0655,0.0125,0.0709
13437,-1.5203,-9.6630,0.0024,-0.0866,0.0189,0.0711
13446,-1.5012,-9.6941,0.0407,-0.1018,0.0232,0.0717
13454,-1.4748,-9.6630,0.1125,-0.1183,0.0274,0.0725
13462,-1.4892,-9.6869,0.0383,-0.1346,0.0354,0.0759
13470,-1.5036,-9.7420,0.0982,-0.1511,0.0416,0.0749
13477,-1.5155,-9.7372,0.1269,-0.1639,0.0450,0.0746
13486,-1.5203,-9.7013,0.0742,-0.1820,0.0456,0.0778
13494,-1.5299,-9.7348,0.1437,-0.1974,0.0490,0.0789
13502,-1.5299,-9.6558,0.0455,-0.2102,0.0592,0.0805
13510,-1.5467,-9.7061,0.0838,-0.2316,0.0616,0.0813
13518,-1.5299,-9.7037,0.1173,-0.2451,0.0650,0.0839
13526,-1.4988,-9.6965,0.1101,-0.2609,0.0714,0.0845
13534,-1.4940,-9.7468,0.0982,-0.2825,0.0770,0.0866
13542,-1.5897,-9.7516,0.0910,-0.2963,0.0877,0.0871
13550,-1.4461,-9.7923,0.0742,-0.3152,0.0879,0.0914
13558,-1.5083,-9.8210,0.0982,-0.3304,0.0941,0.0919
13565,-1.5203,-9.7875,0.1820,-0.3440,0.0954,0.0893
13574,-1.4724,-9.7636,0.0670,-0.3637,0.0997,0.0906
13582,-1.5467,-9.7995,0.1053,-0.3749,0.1055,0.0933
13590,-1.6017,-9.8665,0.1580,-0.3901,0.1053,0.0965
13598,-1.5778,-9.8306,0.1221,-0.4016,0.1135,0.0962
13606,-1.5107,-9.8497,0.1867,-0.4162,0.1135,0.0951
13614,-1.5682,-9.8761,0.1580,-0.4250,0.1164,0.0989
13622,-1.4772,-9.9120,0.0790,-0.4362,0.1180,0.0991
13630,-1.5083,-9.9359,0.1437,-0.4453,0.1231,0.0986
13638,-1.5514,-9.9264,0.1556,-0.4546,0.1236,0.1002
13646,-1.5658,-9.8904,0.2490,-0.4655,0.1282,0.1013
13654,-1.5347,-9.9479,0.1221,-0.4788,0.1295,0.0991
13662,-1.6137,-9.9886,0.2107,-0.4882,0.1327,0.0999
13670,-1.5467,-9.9910,0.1484,-0.4962,0.1372,0.1029
13678,-1.5897,-10.0269,0.1245,-0.5033,0.1378,0.1031
13686,-1.5874,-9.9599,0.1053,-0.5135,0.1375,0.1026
13694,-1.5227,-10.0245,0.0934,-0.5239,0.1396,0.1023
13702,-1.4868,-9.9742,0.1532,-0.5329,0.1399,0.1050
13710,-1.4653,-10.0580,0.1269,-0.5388,0.1458,0.1077
13718,-1.5562,-10.0509,0.1604,-0.5452,0.1412,0.1023
13726,-1.5131,-10.1251,0.1676,-0.5524,0.1436,0.1026
13734,-1.6233,-10.1107,0.1748,-0.5585,0.1474,0.0994
13742,-1.6185,-10.1107,0.1053,-0.5657,0.1495,0.1015
13750,-1.5610,-10.0820,0.2729,-0.5694,0.1423,0.1013
13758,-1.5107,-10.1370,0.1508,-0.5766,0.1455,0.0986
13766,-1.5778,-10.1538,0.1460,-0.5798,0.1468,0.1002
13774,-1.6712,-10.1059,0.1748,-0.5897,0.1452,0.1013
13783,-1.6113,-10.1323,0.1724,-0.5945,0.1460,0.0975
13790,-1.5419,-10.2041,0.1700,-0.5969,0.1455,0.0973
13798,-1.5371,-10.1418,0.1413,-0.6051,0.1420,0.0970
13806,-1.6185,-10.1418,0.2251,-0.6083,0.1444,0.0973
13814,-1.5419,-10.1897,0.2442,-0.6177,0.1404,0.0999
13822,-1.5490,-10.1610,0.2011,-0.6211,0.1428,0.0957
13830,-1.5658,-10.1634,0.2035,-0.6238,0.1447,0.0949
13838,-1.5778,-10.1730,0.2634,-0.6305,0.1428,0.0951
13846,-1.5754,-10.2161,0.2298,-0.6312,0.1404,0.0930
13854,-1.5610,-10.2113,0.1700,-0.6347,0.1399,0.0925
13862,-1.5778,-10.1921,0.2035,-0.6374,0.1351,0.0914
13871,-1.6424,-10.1538,0.1676,-0.6400,0.1359,0.0909
13878,-1.5778,-10.2256,0.2131,-0.6432,0.1327,0.0917
13886,-1.5347,-10.1658,0.1053,-0.6392,0.1332,0.0901
13894,-1.5443,-10.2017,0.2490,-0.6432,0.1356,0.0901
13902,-1.5323,-10.2065,0.1867,-0.6427,0.1314,0.0893
13911,-1.5897,-10.1706,0.1724,-0.6403,0.1330,0.0893
13918,-1.5490,-10.0987,0.1580,-0.6390,0.1266,0.0871
13926,-1.5060,-10.1610,0.2801,-0.6355,0.1263,0.0837
13934,-1.6113,-10.1993,0.2227,-0.6339,0.1210,0.0847
13942,-1.5945,-10.1658,0.2849,-0.6286,0.1202,0.0855
13950,-1.5850,-10.1873,0.2945,-0.6254,0.1191,0.0890
13958,-1.6352,-10.1586,0.2705,-0.6182,0.1127,0.0823
13966,-1.5658,-10.1083,0.3304,-0.6155,0.1159,0.0853
13974,-1.5682,-10.1107,0.2322,-0.6097,0.1132,0.0794
13982,-1.6041,-10.1490,0.3017,-0.6030,0.1132,0.0786
13990,-1.5921,-10.1323,0.2083,-0.5926,0.1100,0.0754
13999,-1.5419,-10.1107,0.2466,-0.5878,0.1100,0.0778
14006,-1.5395,-10.0413,0.2921,-0.5798,0.1111,0.0733
14014,-1.5371,-10.1131,0.2658,-0.5705,0.1085,0.0706
14022,-1.5634,-10.0796,0.2322,-0.5654,0.1061,0.0709
14030,-1.5634,-10.1227,0.3041,-0.5532,0.1095,0.0671
14039,-1.5203,-10.0413,0.1963,-0.5431,0.1074,0.0677
14046,-1.5562,-10.0221,0.2514,-0.5343,0.1010,0.0666
14054,-1.5682,-10.0580,0.1987,-0.5201,0.1026,0.0661
14062,-1.5658,-10.0149,0.2394,-0.5143,0.1039,0.0618
14070,-1.5227,-10.0245,0.2418,-0.5033,0.1007,0.0626
14078,-1.5347,-9.9862,0.2586,-0.4927,0.0973,0.0605
14087,-1.5514,-10.0030,0.2227,-0.4812,0.1013,0.0589
14094,-1.4844,-9.9168,0.3112,-0.4703,0.0978,0.0546
14102,-1.5060,-9.8857,0.2322,-0.4583,0.0981,0.0565
14110,-1.4700,-9.9647,0.2825,-0.4487,0.0951,0.0490
14118,-1.5203,-9.9168,0.1437,-0.4367,0.0975,0.0498
14127,-1.5586,-9.8809,0.2705,-0.4234,0.0951,0.0477
14134,-1.5419,-9.8785,0.2203,-0.4101,0.0917,0.0469
14142,-1.5419,-9.8402,0.2753,-0.4021,0.0895,0.0432
14150,-1.5514,-9.8713,0.2753,-0.3840,0.0922,0.0410
14158,-1.4844,-9.8833,0.2490,-0.3725,0.0925,0.0400
14167,-1.5107,-9.8354,0.2035,-0.3643,0.0871,0.0378
14175,-1.5275,-9.8617,0.2538,-0.3483,0.0855,0.0384
14182,-1.5562,-9.8258,0.2658,-0.3352,0.0869,0.0338
14190,-1.4796,-9.7971,0.1748,-0.3168,0.0829,0.0317
14198,-1.4796,-9.7109,0.2993,-0.3046,0.0818,0.0320
14206,-1.5107,-9.7683,0.2658,-0.2942,0.0799,0.0282
14215,-1.5060,-9.7947,0.3041,-0.2782,0.0802,0.0280
14222,-1.4796,-9.7659,0.2394,-0.2617,0.0775,0.0226
14230,-1.4724,-9.7588,0.2729,-0.2475,0.0746,0.0232
14238,-1.5467,-9.7468,0.2777,-0.2329,0.0682,0.0232
14246,-1.4700,-9.7348,0.2514,-0.2148,0.0658,0.0189
14255,-1.5275,-9.7444,0.2753,-0.2001,0.0637,0.0203
14263,-1.4916,-9.7276,0.2490,-0.1833,0.0616,0.0184
14270,-1.4533,-9.7324,0.2729,-0.1668,0.0597,0.0152
14278,-1.4676,-9.7444,0.2849,-0.1498,0.0501,0.0112
14286,-1.5299,-9.6822,0.2873,-0.1324,0.0474,0.0128
14295,-1.4605,-9.6798,0.2610,-0.1132,0.0421,0.0117
14303,-1.4820,-9.6702,0.1628,-0.0983,0.0389,0.0067
14310,-1.5251,-9.7061,0.2562,-0.0834,0.0378,0.0043
14318,-1.5012,-9.6414,0.3089,-0.0613,0.0309,0.0051
14326,-1.4581,-9.6726,0.2322,-0.0440,0.0285,0.0027
14334,-1.5203,-9.6750,0.2610,-0.0258,0.0242,-0.0013
14343,-1.4940,-9.6223,0.2705,-0.0096,0.0157,-0.0011
14351,-1.4629,-9.6989,0.2682,0.0096,0.0131,-0.0040
14358,-1.5203,-9.7205,0.3256,0.0296,0.0072,-0.0005
14366,-1.5036,-9.6654,0.2945,0.0474,-0.0019,-0.0064
14374,-1.4605,-9.7396,0.3232,0.0629,-0.0056,-0.0077
14383,-1.4676,-9.6798,0.3184,0.0802,-0.0075,-0.0080
14391,-1.5299,-9.6582,0.3232,0.0997,-0.0147,-0.0083
14398,-1.4964,-9.6774,0.3065,0.1138,-0.0213,-0.0115
14406,-1.5251,-9.6989,0.2155,0.1316,-0.0264,-0.0160
14414,-1.4796,-9.6798,0.3041,0.1511,-0.0317,-0.0149
14423,-1.4988,-9.6510,0.2538,0.1692,-0.0394,-0.0187
14431,-1.4317,-9.6654,0.3065,0.1812,-0.0400,-0.0176
14439,-1.4102,-9.7109,0.2011,0.1990,-0.0509,-0.0213
14446,-1.4988,-9.6606,0.2729,0.2118,-0.0560,-0.0229
14454,-1.5347,-9.7348,0.1700,0.2321,-0.0634,-0.0213
14462,-1.5323,-9.7013,0.3136,0.2422,-0.0682,-0.0256
14471,-1.4940,-9.7205,0.3304,0.2635,-0.0706,-0.0242
14479,-1.5060,-9.7396,0.2514,0.2771,-0.0791,-0.0250
14486,-1.5107,-9.7803,0.1963,0.2931,-0.0853,-0.0258
14494,-1.4988,-9.7995,0.2035,0.3104,-0.0879,-0.0272
14502,-1.6041,-9.7827,0.2490,0.3275,-0.0959,-0.0301
14511,-1.5443,-9.7995,0.2945,0.3392,-0.1018,-0.0304
14519,-1.5682,-9.8114,0.2298,0.3539,-0.1026,-0.0285
14527,-1.4700,-9.8162,0.2107,0.3728,-0.1095,-0.0309
14534,-1.4868,-9.8186,0.2059,0.3832,-0.1162,-0.0322
14542,-1.5371,-9.8162,0.3472,0.3970,-0.1191,-0.0320
14551,-1.5802,-9.8378,0.3304,0.4064,-0.1228,-0.0296
14559,-1.5060,-9.8210,0.2298,0.4175,-0.1266,-0.0314
14567,-1.5083,-9.8545,0.2729,0.4309,-0.1234,-0.0322
14574,-1.5897,-9.8928,0.1844,0.4397,-0.1322,-0.0333
14582,-1.5730,-9.9096,0.1772,0.4482,-0.1295,-0.0320
14590,-1.5993,-9.9407,0.0862,0.4612,-0.1316,-0.0346
14599,-1.5012,-9.9407,0.2322,0.4671,-0.1370,-0.0314
14607,-1.5634,-9.9647,0.2251,0.4772,-0.1362,-0.0333
14614,-1.5131,-9.9695,0.1413,0.4884,-0.1399,-0.0346
14622,-1.5443,-10.0197,0.2490,0.4975,-0.1378,-0.0344
14630,-1.6017,-10.0030,0.1580,0.5023,-0.1402,-0.0338
14639,-1.5850,-10.0604,0.2322,0.5135,-0.1407,-0.0346
14647,-1.5538,-10.0006,0.2346,0.5215,-0.1399,-0.0336
14655,-1.5538,-10.0652,0.2059,0.5303,-0.1423,-0.0373
14662,-1.5323,-10.0987,0.2466,0.5367,-0.1420,-0.0360
14670,-1.5634,-10.0724,0.2131,0.5428,-0.1418,-0.0392
14679,-1.5514,-10.0556,0.2011,0.5500,-0.1402,-0.0368
14687,-1.5802,-10.0916,0.1772,0.5577,-0.1423,-0.0394
14695,-1.6233,-10.0556,0.1245,0.5617,-0.1415,-0.0346
14702,-1.5514,-10.0844,0.2418,0.5646,-0.1418,-0.0408
14710,-1.6185,-10.1586,0.1556,0.5726,-0.1386,-0.0381
14718,-1.5993,-10.0461,0.1652,0.5772,-0.1348,-0.0354
14727,-1.5634,-10.0748,0.2394,0.5836,-0.1372,-0.0410
14735,-1.5874,-10.1610,0.0958,0.5897,-0.1362,-0.0442
14743,-1.5610,-10.1849,0.1987,0.5937,-0.1378,-0.0424
14750,-1.5754,-10.1849,0.2753,0.5979,-0.1378,-0.0413
14758,-1.5634,-10.1227,0.1844,0.6057,-0.1372,-0.0389
14767,-1.5706,-10.1658,0.1891,0.6091,-0.1356,-0.0402
14775,-1.5634,-10.1323,0.1748,0.6131,-0.1367,-0.0410
14783,-1.5874,-10.1466,0.1700,0.6174,-0.1375,-0.0424
14790,-1.5706,-10.1634,0.1891,0.6182,-0.1354,-0.0418
14798,-1.5874,-10.1083,0.1748,0.6206,-0.1351,-0.0405
14807,-1.6113,-10.1586,0.1413,0.6214,-0.1372,-0.0408
14815,-1.5658,-10.1658,0.1508,0.6238,-0.1356,-0.0370
14823,-1.5562,-10.1442,0.1700,0.6238,-0.1362,-0.0376
14831,-1.5945,-10.1418,0.1700,0.6230,-0.1324,-0.0357
14838,-1.5778,-10.1897,0.1532,0.6206,-0.1332,-0.0349
14846,-1.5945,-10.1514,0.1341,0.6219,-0.1338,-0.0322
14855,-1.6233,-10.1347,0.1796,0.6179,-0.1319,-0.0314
14863,-1.5874,-10.1370,0.0862,0.6169,-0.1324,-0.0336
14871,-1.5658,-10.1658,0.1125,0.6115,-0.1330,-0.0320
14878,-1.5586,-10.1107,0.0982,0.6078,-0.1319,-0.0266
14886,-1.6305,-10.1251,0.0742,0.6038,-0.1300,-0.0280
14895,-1.6257,-10.0820,0.1125,0.6035,-0.1338,-0.0256
14903,-1.5778,-10.1658,0.0862,0.5977,-0.1306,-0.0208
14911,-1.5850,-10.1131,0.0910,0.5881,-0.1284,-0.0195
14919,-1.6017,-10.0724,0.1365,0.5844,-0.1282,-0.0213
14926,-1.5730,-10.1275,0.0838,0.5742,-0.1338,-0.0203
14935,-1.5754,-10.1323,0.1006,0.5726,-0.1279,-0.0173
14943,-1.6520,-10.1442,0.1460,0.5665,-0.1295,-0.0155
14951,-1.5658,-10.0987,0.1245,0.5561,-0.1290,-0.0123
14959,-1.5634,-10.0580,0.1437,0.5470,-0.1271,-0.0117
14966,-1.5850,-10.0173,0.0742,0.5377,-0.1234,-0.0112
14974,-1.6305,-10.0485,0.0718,0.5273,-0.1258,-0.0115
14983,-1.5299,-10.0676,0.1125,0.5199,-0.1250,-0.0096
14991,-1.6113,-10.0269,0.0622,0.5103,-0.1186,-0.0085
14999,-1.5538,-10.0413,0.0958,0.5015,-0.1172,-0.0072
15007,-1.5706,-9.9982,0.1197,0.4927,-0.1194,-0.0043
15014,-1.5347,-10.0078,0.0862,0.4820,-0.1138,-0.0053
15023,-1.5850,-9.9168,0.0599,0.4711,-0.1130,-0.0021
15031,-1.5850,-9.9814,0.1508,0.4612,-0.1132,-0.0003
15039,-1.5107,-9.9479,0.1628,0.4511,-0.1130,0.0021
15047,-1.5850,-9.9359,0.1197,0.4402,-0.1095,0.0024
15054,-1.5778,-9.9311,0.1389,0.4325,-0.1090,0.0061
15063,-1.5850,-9.9288,0.0718,0.4218,-0.1066,0.0035
15071,-1.5251,-9.9192,0.1963,0.4093,-0.1021,0.0059
15079,-1.5036,-9.8976,0.1101,0.3994,-0.0994,0.0091
15087,-1.5419,-9.8186,0.0910,0.3869,-0.0983,0.0093
15095,-1.5395,-9.8833,0.0431,0.3757,-0.0927,0.0099
15102,-1.5467,-9.8904,0.1652,0.3637,-0.0933,0.0139
15111,-1.5562,-9.7803,0.1508,0.3531,-0.0933,0.0176
15119,-1.4533,-9.8043,0.0718,0.3360,-0.0882,0.0152
15127,-1.4916,-9.7779,0.0982,0.3269,-0.0842,0.0197
15135,-1.5658,-9.8019,0.0383,0.3102,-0.0815,0.0221
15142,-1.5826,-9.7971,0.1389,0.2984,-0.0797,0.0205
15151,-1.4748,-9.8066,0.0287,0.2838,-0.0754,0.0248
15159,-1.5754,-9.7995,0.0862,0.2713,-0.0754,0.0285
15167,-1.5634,-9.7468,0.0982,0.2587,-0.0682,0.0290
15175,-1.5012,-9.7468,0.0694,0.2419,-0.0653,0.0346
15183,-1.4533,-9.7588,0.0622,0.2313,-0.0671,0.0354
15191,-1.4964,-9.7659,0.0742,0.2148,-0.0605,0.0346
15199,-1.5610,-9.6845,0.1484,0.1988,-0.0562,0.0400
15207,-1.5323,-9.6391,0.1652,0.1839,-0.0504,0.0408
15215,-1.4892,-9.7324,0.0599,0.1660,-0.0490,0.0424
15223,-1.5179,-9.7037,0.0527,0.1537,-0.0482,0.0474
15230,-1.5467,-9.7659,0.1125,0.1386,-0.0440,0.0496
15239,-1.5131,-9.6869,0.0766,0.1180,-0.0373,0.0528
15247,-1.4820,-9.6630,0.0910,0.1026,-0.0290,0.0504
15255,-1.5658,-9.6630,0.0575,0.0882,-0.0301,0.0576
15263,-1.5299,-9.6845,0.0407,0.0703,-0.0258,0.0560
15270,-1.5107,-9.6606,0.1125,0.0538,-0.0240,0.0618
15279,-1.5060,-9.6917,0.0575,0.0386,-0.0211,0.0632
15287,-1.5371,-9.6630,0.0814,0.0208,-0.0115,0.0637
15295,-1.5275,-9.7300,0.0599,0.0029,-0.0101,0.0642
15303,-1.5275,-9.7252,0.0383,-0.0152,-0.0059,0.0658
15311,-1.5012,-9.6893,0.0910,-0.0298,-0.0003,0.0687
15319,-1.5634,-9.6438,0.0479,-0.0442,0.0040,0.0690
15327,-1.5538,-9.6869,0.0742,-0.0610,0.0109,0.0730
15335,-1.4844,-9.6750,0.1101,-0.0781,0.0155,0.0719
15343,-1.4844,-9.7109,0.1532,-0.0933,0.0213,0.0733
15351,-1.5060,-9.6845,0.0503,-0.1106,0.0245,0.0773
15358,-1.5203,-9.6917,0.0718,-0.1266,0.0304,0.0794
15367,-1.4724,-9.7276,0.0934,-0.1420,0.0352,0.0805
15375,-1.4892,-9.7372,0.1293,-0.1559,0.0394,0.0821
15383,-1.5107,-9.7252,0.1532,-0.1676,0.0490,0.0815
15391,-1.4341,-9.7061,0.0742,-0.1817,0.0496,0.0823
15399,-1.4940,-9.6343,0.0838,-0.1993,0.0552,0.0842
15407,-1.4988,-9.7516,0.1077,-0.2134,0.0565,0.0882
15415,-1.5371,-9.7252,0.1317,-0.2297,0.0629,0.0850
15423,-1.5275,-9.6414,0.0503,-0.2414,0.0682,0.0895
15431,-1.5275,-9.6965,0.1604,-0.2563,0.0719,0.0925
15439,-1.4916,-9.7324,0.0814,-0.2718,0.0781,0.0927
15447,-1.4964,-9.8186,0.1365,-0.2870,0.0799,0.0949
15455,-1.5323,-9.7731,0.1077,-0.3014,0.0885,0.0925
15463,-1.5706,-9.7755,0.0838,-0.3190,0.0909,0.0901
15471,-1.4605,-9.8258,0.1700,-0.3309,0.0967,0.0946
15479,-1.5347,-9.7947,0.1437,-0.3445,0.0991,0.0925
15488,-1.4892,-9.7683,0.0359,-0.3581,0.1058,0.0957
15495,-1.5371,-9.8761,0.1317,-0.3675,0.1085,0.0997
15503,-1.5706,-9.8881,0.1484,-0.3786,0.1095,0.0962
15511,-1.5443,-9.8617,0.1269,-0.3930,0.1167,0.0970
15519,-1.5969,-9.9096,0.1245,-0.4040,0.1156,0.1005
15527,-1.5395,-9.8952,0.2155,-0.4122,0.1154,0.0983
15535,-1.5323,-9.9599,0.1915,-0.4210,0.1156,0.0986
15543,-1.5251,-9.9838,0.1437,-0.4325,0.1244,0.0989
15551,-1.5658,-9.9072,0.1867,-0.4413,0.1268,0.0983
15559,-1.4868,-9.9168,0.1532,-0.4453,0.1247,0.0967
15567,-1.6113,-9.9862,0.1820,-0.4570,0.1290,0.0991
15576,-1.5203,-9.9575,0.2203,-0.4636,0.1311,0.1010
15583,-1.5778,-10.0509,0.2059,-0.4724,0.1311,0.0981
15591,-1.6233,-9.9623,0.1413,-0.4772,0.1308,0.0994
15599,-1.5538,-10.0604,0.1820,-0.4860,0.1340,0.0983
15607,-1.5347,-9.9718,0.1532,-0.4964,0.1364,0.1002
15616,-1.5610,-10.0269,0.1676,-0.5023,0.1354,0.1023
15623,-1.6185,-10.0820,0.0622,-0.5073,0.1340,0.0973
15631,-1.5514,-10.0533,0.1700,-0.5169,0.1402,0.0973
15639,-1.6137,-10.0556,0.1963,-0.5196,0.1380,0.0981
15647,-1.5538,-10.0341,0.1772,-0.5233,0.1356,0.1010
15655,-1.5682,-10.0341,0.1604,-0.5289,0.1386,0.0981
15664,-1.5419,-10.1083,0.0982,-0.5332,0.1354,0.0967
15671,-1.5658,-10.0461,0.1077,-0.5409,0.1359,0.0959
15679,-1.5874,-10.0940,0.1963,-0.5444,0.1399,0.0962
15687,-1.5179,-10.1035,0.1556,-0.5521,0.1340,0.0978
15695,-1.5610,-10.0963,0.2131,-0.5580,0.1364,0.0965
15704,-1.5538,-10.1394,0.1891,-0.5596,0.1340,0.0967
15711,-1.5921,-10.1801,0.1149,-0.5638,0.1362,0.0943
15719,-1.5826,-10.0940,0.1867,-0.5676,0.1346,0.0927
15727,-1.5299,-10.0963,0.1221,-0.5750,0.1300,0.0941
15735,-1.5969,-10.1610,0.1820,-0.5774,0.1314,0.0930
15744,-1.5730,-10.1107,0.1580,-0.5809,0.1287,0.0919
15752,-1.5586,-10.1538,0.1772,-0.5822,0.1282,0.0909
15759,-1.6065,-10.1945,0.1269,-0.5870,0.1252,0.0890
15767,-1.6065,-10.1682,0.1963,-0.5868,0.1228,0.0898
15775,-1.5730,-10.1562,0.1365,-0.5907,0.1204,0.0887
15783,-1.5921,-10.1107,0.2298,-0.5929,0.1191,0.0871
15792,-1.5993,-10.1394,0.2490,-0.5862,0.1204,0.0831
15799,-1.5562,-10.1490,0.2370,-0.5886,0.1180,0.0829
15807,-1.5921,-10.0987,0.2394,-0.5878,0.1175,0.0877
15815,-1.5275,-10.0940,0.2658,-0.5870,0.1124,0.0821
15823,-1.5514,-10.1370,0.1580,-0.5846,0.1116,0.0815
15832,-1.5514,-10.0580,0.1867,-0.5814,0.1154,0.0770
15840,-1.5921,-10.0916,0.2107,-0.5782,0.1090,0.0786
15847,-1.5730,-10.1227,0.2586,-0.5756,0.1063,0.0775
15855,-1.5730,-10.0987,0.2227,-0.5721,0.1066,0.0765
15863,-1.6233,-10.1251,0.2155,-0.5641,0.1047,0.0759
15872,-1.5634,-10.0963,0.2107,-0.5601,0.1013,0.0727
15880,-1.6113,-10.0317,0.2322,-0.5532,0.1023,0.0701
15887,-1.5371,-10.0748,0.2418,-0.5449,0.1018,0.0695
15895,-1.5850,-10.0916,0.2107,-0.5388,0.0978,0.0674
15903,-1.5443,-10.0652,0.2442,-0.5343,0.0967,0.0698
15911,-1.5634,-10.0437,0.2083,-0.5273,0.0957,0.0663
15920,-1.5395,-10.0365,0.2418,-0.5167,0.0959,0.0645
15927,-1.5634,-10.0437,0.2873,-0.5071,0.0930,0.0629
15935,-1.5874,-9.9671,0.2586,-0.5009,0.0949,0.0624
15943,-1.6089,-9.9886,0.2801,-0.4890,0.0922,0.0610
15951,-1.5275,-10.0030,0.2035,-0.4796,0.0901,0.0573
15960,-1.4892,-10.0054,0.2370,-0.4687,0.0935,0.0576
15968,-1.5371,-9.9503,0.2107,-0.4634,0.0917,0.0573
15975,-1.5347,-9.9575,0.3017,-0.4487,0.0914,0.0549
15983,-1.5562,-9.9623,0.2801,-0.4423,0.0855,0.0528
15991,-1.5275,-9.9599,0.1508,-0.4317,0.0877,0.0530
16000,-1.5275,-9.9168,0.2251,-0.4205,0.0850,0.0490
16008,-1.5323,-9.9192,0.3472,-0.4088,0.0871,0.0464
16015,-1.5443,-9.8904,0.2634,-0.3957,0.0855,0.0445
16023,-1.5203,-9.9335,0.2610,-0.3877,0.0845,0.0429
16031,-1.5155,-9.9048,0.2466,-0.3773,0.0805,0.0437
16039,-1.5012,-9.8593,0.2107,-0.3651,0.0805,0.0381
16048,-1.5347,-9.8665,0.2634,-0.3528,0.0823,0.0386
16056,-1.5203,-9.9335,0.2274,-0.3440,0.0799,0.0354
16063,-1.5275,-9.8354,0.2849,-0.3288,0.0789,0.0333
16071,-1.5395,-9.8426,0.3041,-0.3174,0.0767,0.0325
16079,-1.4150,-9.8114,0.2514,-0.3027,0.0783,0.0312
16088,-1.4844,-9.8258,0.2658,-0.2912,0.0759,0.0296
16096,-1.4892,-9.8450,0.2059,-0.2779,0.0754,0.0274
16103,-1.4844,-9.7779,0.3017,-0.2641,0.0727,0.0248
16111,-1.4940,-9.8258,0.2729,-0.2539,0.0709,0.0240
16119,-1.4724,-9.7372,0.1867,-0.2385,0.0711,0.0218
16128,-1.5131,-9.7085,0.2969,-0.2228,0.0661,0.0197
16136,-1.4437,-9.7396,0.2131,-0.2078,0.0634,0.0112
16144,-1.5275,-9.7085,0.2274,-0.1913,0.0610,0.0155
16151,-1.5131,-9.7181,0.2227,-0.1799,0.0618,0.0136
16159,-1.4892,-9.7181,0.2514,-0.1631,0.0570,0.0112
16167,-1.4653,-9.7061,0.2634,-0.1503,0.0512,0.0088
16176,-1.4557,-9.6558,0.2658,-0.1362,0.0498,0.0072
16184,-1.5155,-9.7444,0.3639,-0.1180,0.0442,0.0045
16191,-1.4820,-9.7252,0.2298,-0.1021,0.0432,0.0035
16199,-1.4748,-9.6534,0.2777,-0.0887,0.0386,0.0000
16207,-1.4509,-9.7205,0.2993,-0.0711,0.0320,-0.0011
16216,-1.5443,-9.6893,0.2274,-0.0552,0.0306,0.0003
16224,-1.4916,-9.6774,0.2682,-0.0384,0.0240,-0.0037
16232,-1.4964,-9.7444,0.3160,-0.0218,0.0237,-0.0029
16239,-1.4988,-9.6630,0.2897,-0.0067,0.0181,-0.0043
16247,-1.4605,-9.7300,0.3232,0.0120,0.0123,-0.0093
16256,-1.4676,-9.7444,0.2753,0.0277,0.0045,-0.0128
16264,-1.4772,-9.7061,0.2634,0.0472,-0.0003,-0.0107
16272,-1.5275,-9.7444,0.2610,0.0592,-0.0024,-0.0104
16279,-1.5179,-9.7085,0.2251,0.0751,-0.0091,-0.0139
16287,-1.5538,-9.7205,0.2682,0.0946,-0.0144,-0.0123
16295,-1.4940,-9.6750,0.2562,0.1061,-0.0200,-0.0133
16304,-1.4700,-9.7300,0.2945,0.1260,-0.0240,-0.0171
16312,-1.4676,-9.7468,0.2370,0.1426,-0.0293,-0.0181
16320,-1.4988,-9.6869,0.2227,0.1545,-0.0344,-0.0171
16327,-1.5107,-9.6702,0.2849,0.1713,-0.0402,-0.0195
16335,-1.5371,-9.7516,0.2753,0.1849,-0.0477,-0.0229
16344,-1.4772,-9.7899,0.2705,0.1990,-0.0546,-0.0226
16352,-1.5012,-9.7276,0.1844,0.2172,-0.0592,-0.0218
16360,-1.5467,-9.7324,0.1915,0.2289,-0.0632,-0.0261
16367,-1.5179,-9.8306,0.2945,0.2406,-0.0709,-0.0288
16375,-1.5275,-9.7827,0.2801,0.2598,-0.0751,-0.0306
16384,-1.4700,-9.7492,0.3041,0.2731,-0.0794,-0.0301
16392,-1.4820,-9.7827,0.3136,0.2891,-0.0863,-0.0309
16400,-1.5155,-9.7659,0.1077,0.3008,-0.0898,-0.0296
16408,-1.5490,-9.8282,0.2586,0.3134,-0.0938,-0.0274
16415,-1.5083,-9.8282,0.2538,0.3317,-0.1013,-0.0320
16423,-1.4964,-9.8138,0.2562,0.3395,-0.1071,-0.0293
16432,-1.5299,-9.8426,0.2538,0.3552,-0.1087,-0.0346
16440,-1.5347,-9.8114,0.2634,0.3661,-0.1116,-0.0349
16448,-1.5443,-9.8809,0.1604,0.3749,-0.1119,-0.0325
16455,-1.5203,-9.8426,0.1676,0.3861,-0.1175,-0.0317
16463,-1.5299,-9.9096,0.2586,0.3957,-0.1215,-0.0322
16472,-1.5275,-9.8689,0.1484,0.4072,-0.1244,-0.0336
16480,-1.4988,-9.8713,0.1963,0.4120,-0.1236,-0.0346
16488,-1.5227,-9.9335,0.1413,0.4237,-0.1266,-0.0338
16495,-1.5203,-9.9934,0.1508,0.4319,-0.1260,-0.0330
16503,-1.5299,-9.9599,0.1987,0.4399,-0.1282,-0.0352
16512,-1.5538,-9.9575,0.1963,0.4485,-0.1314,-0.0338
16520,-1.5586,-9.9383,0.1700,0.4580,-0.1298,-0.0341
16528,-1.5658,-9.9982,0.1700,0.4620,-0.1298,-0.0336
16536,-1.5634,-9.9671,0.1413,0.4708,-0.1330,-0.0338
16543,-1.5634,-9.9527,0.2131,0.4802,-0.1330,-0.0370
16551,-1.5706,-9.9527,0.1604,0.4858,-0.1359,-0.0312
16560,-1.5514,-10.0054,0.1891,0.4919,-0.1322,-0.0370
16568,-1.6209,-10.0221,0.2107,0.5002,-0.1311,-0.0381
16576,-1.5754,-10.0149,0.1844,0.5089,-0.1306,-0.0344
16583,-1.5682,-10.0341,0.1700,0.5111,-0.1308,-0.0344
16591,-1.5107,-10.0676,0.2274,0.5153,-0.1292,-0.0362
16600,-1.6113,-10.0676,0.0934,0.5236,-0.1292,-0.0389
16608,-1.6041,-10.0365,0.2083,0.5252,-0.1303,-0.0381
16616,-1.6400,-10.1011,0.1077,0.5348,-0.1260,-0.0357
16624,-1.6185,-10.1179,0.1844,0.5407,-0.1276,-0.0368
16631,-1.5921,-10.0844,0.1149,0.5420,-0.1236,-0.0341
16640,-1.5299,-10.1083,0.1221,0.5505,-0.1226,-0.0392
16648,-1.5897,-10.0868,0.1413,0.5508,-0.1255,-0.0381
16656,-1.5874,-10.1227,0.1891,0.5598,-0.1218,-0.0362
16664,-1.5802,-10.0892,0.1365,0.5625,-0.1226,-0.0381
16671,-1.6017,-10.0341,0.1317,0.5692,-0.1207,-0.0360
16679,-1.5778,-10.1035,0.1077,0.5678,-0.1234,-0.0370
16688,-1.5945,-10.0604,0.1700,0.5708,-0.1188,-0.0354
16696,-1.5395,-10.1323,0.1676,0.5742,-0.1183,-0.0349
16704,-1.5323,-10.1131,0.1987,0.5748,-0.1196,-0.0344
16712,-1.5826,-10.1562,0.1269,0.5745,-0.1170,-0.0336
16719,-1.5826,-10.1394,0.2394,0.5772,-0.1175,-0.0320
16728,-1.5323,-10.0940,0.1676,0.5734,-0.1196,-0.0317
16736,-1.5538,-10.1370,0.1101,0.5756,-0.1143,-0.0325
16744,-1.5395,-10.0844,0.1939,0.5700,-0.1172,-0.0301
16752,-1.5802,-10.1610,0.2179,0.5705,-0.1178,-0.0282
16759,-1.6065,-10.1562,0.1101,0.5686,-0.1127,-0.0290
16768,-1.5850,-10.1155,0.1221,0.5652,-0.1170,-0.0261
16776,-1.5778,-10.1059,0.0886,0.5606,-0.1159,-0.0237
16784,-1.5945,-10.0820,0.1053,0.5577,-0.1151,-0.0208
16792,-1.5874,-10.1251,0.0958,0.5542,-0.1130,-0.0229
16800,-1.5897,-10.0628,0.1389,0.5486,-0.1196,-0.0192
16807,-1.5826,-10.0556,0.1844,0.5399,-0.1202,-0.0165
16816,-1.5897,-10.0844,0.1030,0.5359,-0.1156,-0.0155
16824,-1.5490,-10.0245,0.0766,0.5327,-0.1119,-0.0136
16832,-1.6161,-10.0269,0.1077,0.5236,-0.1175,-0.0117
16840,-1.5874,-10.0724,0.0503,0.5180,-0.1170,-0.0128
16847,-1.5634,-10.0413,0.1197,0.5097,-0.1154,-0.0085
16856,-1.5203,-10.0221,0.0383,0.5004,-0.1151,-0.0064
16864,-1.5562,-10.0389,0.0910,0.4954,-0.1154,-0.0069
16872,-1.5754,-9.9958,0.1365,0.4884,-0.1127,-0.0040
16880,-1.6305,-10.0126,0.0982,0.4759,-0.1140,-0.0011
16888,-1.5897,-9.9982,0.1125,0.4668,-0.1116,-0.0008
16896,-1.5658,-9.9838,0.1293,0.4594,-0.1108,0.0011
16904,-1.5850,-9.9671,0.0718,0.4479,-0.1087,0.0005
16912,-1.5586,-9.9359,0.1652,0.4378,-0.1077,0.0035
16920,-1.5514,-9.8785,0.1125,0.4338,-0.1063,0.0067
16928,-1.5203,-9.8833,0.0311,0.4223,-0.1061,0.0067
16935,-1.5682,-9.9288,0.1030,0.4117,-0.1034,0.0051
16944,-1.5227,-9.9168,0.0670,0.4034,-0.1013,0.0107
16952,-1.5395,-9.8641,0.0862,0.3917,-0.1002,0.0107
16960,-1.5467,-9.8928,0.0766,0.3850,-0.0959,0.0141
16968,-1.5850,-9.8450,0.0982,0.3728,-0.0935,0.0125
16976,-1.5395,-9.8402,0.1604,0.3640,-0.0927,0.0173
16984,-1.5586,-9.8785,0.0527,0.3515,-0.0906,0.0168
16992,-1.5897,-9.8593,0.1437,0.3419,-0.0909,0.0197
17000,-1.5754,-9.8737,0.0910,0.3307,-0.0885,0.0197
17008,-1.5131,-9.8306,0.0335,0.3203,-0.0861,0.0224
17016,-1.5443,-9.8210,0.0982,0.3064,-0.0842,0.0250
17024,-1.5179,-9.7588,0.1844,0.3003,-0.0789,0.0250
17032,-1.5730,-9.7947,0.1149,0.2856,-0.0783,0.0282
17040,-1.4892,-9.7540,0.0958,0.2721,-0.0738,0.0280
17048,-1.5227,-9.7516,0.1125,0.2585,-0.0725,0.0309
17056,-1.5203,-9.7971,0.1149,0.2483,-0.0695,0.0338
17063,-1.5107,-9.7779,0.1700,0.2326,-0.0637,0.0357
17072,-1.5562,-9.7516,0.1269,0.2209,-0.0613,0.0378
17080,-1.5562,-9.7731,0.1197,0.2070,-0.0552,0.0384
17088,-1.4988,-9.7252,-0.0311,0.1911,-0.0530,0.0434
17096,-1.5778,-9.7659,-0.0694,0.1820,-0.0522,0.0421
17104,-1.5155,-9.7564,0.0886,0.1644,-0.0506,0.0464
17112,-1.5227,-9.7420,0.0215,0.1503,-0.0453,0.0498
17120,-1.4437,-9.6678,0.1341,0.1348,-0.0389,0.0514
17128,-1.5251,-9.6606,0.0910,0.1218,-0.0352,0.0578
17136,-1.5419,-9.7085,0.0910,0.1077,-0.0322,0.0560
17144,-1.5227,-9.7276,0.0359,0.0895,-0.0282,0.0581
17152,-1.5299,-9.7229,0.0718,0.0757,-0.0240,0.0576
17160,-1.4940,-9.7348,0.0886,0.0613,-0.0224,0.0589
17168,-1.4557,-9.6893,0.0910,0.0453,-0.0147,0.0621
17176,-1.5179,-9.6869,0.0622,0.0293,-0.0123,0.0645
17184,-1.5323,-9.7013,0.0958,0.0147,-0.0085,0.0653
17192,-1.5155,-9.6534,0.1221,-0.0011,-0.0021,0.0695
17200,-1.4653,-9.6678,0.1604,-0.0120,0.0011,0.0725
17208,-1.4964,-9.7013,0.0934,-0.0325,0.0072,0.0743
17216,-1.5036,-9.6893,0.0383,-0.0461,0.0107,0.0746
17224,-1.5083,-9.6893,0.1844,-0.0594,0.0144,0.0749
17232,-1.5419,-9.7181,0.0646,-0.0746,0.0197,0.0775
17240,-1.5251,-9.7205,0.1628,-0.0871,0.0226,0.0786
17248,-1.4557,-9.7564,0.1604,-0.1013,0.0282,0.0778
17256,-1.4485,-9.7468,0.1676,-0.1170,0.0314,0.0805
17264,-1.5347,-9.7157,0.1724,-0.1319,0.0325,0.0823
17272,-1.5754,-9.7085,0.0910,-0.1436,0.0384,0.0831
17281,-1.4724,-9.6822,0.0694,-0.1599,0.0456,0.0863
17288,-1.4700,-9.6534,0.1556,-0.1719,0.0493,0.0850
17296,-1.5203,-9.7540,0.1748,-0.1841,0.0533,0.0901
17304,-1.5179,-9.7612,0.1101,-0.2028,0.0554,0.0882
17312,-1.5036,-9.7468,0.1197,-0.2169,0.0600,0.0903
17320,-1.5706,-9.8090,0.0718,-0.2273,0.0632,0.0901
17328,-1.4820,-9.7683,-0.0096,-0.2422,0.0714,0.0909
17336,-1.4940,-9.8138,0.1580,-0.2555,0.0762,0.0903
17344,-1.4892,-9.7779,0.1820,-0.2689,0.0778,0.0935
17352,-1.4533,-9.7324,0.1125,-0.2817,0.0775,0.0911
17360,-1.4916,-9.7803,0.1317,-0.2966,0.0845,0.0946
17369,-1.4892,-9.8066,0.1149,-0.3086,0.0869,0.0943
17376,-1.4940,-9.7851,0.0766,-0.3200,0.0922,0.0946
17384,-1.5155,-9.8258,0.1676,-0.3309,0.0951,0.0965
17392,-1.4676,-9.8521,0.1724,-0.3427,0.0981,0.0954
17400,-1.5323,-9.8402,0.1221,-0.3539,0.1026,0.0970
17409,-1.5586,-9.8210,0.2155,-0.3653,0.1029,0.0965
17416,-1.5060,-9.8785,0.1676,-0.3725,0.1061,0.0991
17424,-1.5874,-9.8521,0.1484,-0.3845,0.1077,0.0949
17432,-1.5395,-9.8809,0.1006,-0.3914,0.1100,0.0967
17440,-1.5347,-9.8857,0.1149,-0.3997,0.1146,0.0957
17448,-1.5419,-9.9431,0.1437,-0.4096,0.1151,0.0962
17457,-1.5538,-9.9264,0.1987,-0.4178,0.1124,0.0983
17464,-1.5155,-9.9958,0.1867,-0.4215,0.1170,0.0973
17472,-1.5634,-9.9072,0.2107,-0.4309,0.1226,0.0975
17480,-1.5323,-9.9814,0.2059,-0.4359,0.1223,0.0986
17488,-1.5490,-9.9766,0.2083,-0.4423,0.1194,0.0951
17497,-1.5826,-9.9527,0.2251,-0.4495,0.1258,0.0957
17504,-1.6185,-9.9790,0.1820,-0.4594,0.1266,0.0967
17512,-1.5323,-9.9718,0.1724,-0.4620,0.1231,0.0957
17520,-1.4988,-10.0389,0.1053,-0.4666,0.1274,0.0967
17528,-1.5682,-10.0173,0.2227,-0.4746,0.1276,0.0954
17537,-1.5802,-10.0317,0.1820,-0.4791,0.1276,0.0978
17545,-1.5610,-10.0365,0.1413,-0.4876,0.1290,0.0949
17552,-1.5826,-10.0365,0.2227,-0.4874,0.1276,0.0943
17560,-1.4892,-10.0078,0.1700,-0.4954,0.1279,0.0938
17568,-1.5395,-10.0556,0.1030,-0.4996,0.1266,0.0943
17576,-1.6089,-10.0365,0.1676,-0.5047,0.1271,0.0946
17585,-1.5371,-10.0700,0.1676,-0.5076,0.1268,0.0935
17592,-1.5395,-10.0724,0.1987,-0.5143,0.1250,0.0927
17600,-1.5490,-10.0030,0.2682,-0.5172,0.1263,0.0927
17608,-1.6017,-10.0509,0.1700,-0.5204,0.1239,0.0930
17616,-1.5802,-10.1275,0.1365,-0.5257,0.1231,0.0911
17625,-1.5634,-10.1251,0.0814,-0.5289,0.1234,0.0890
17633,-1.5802,-10.0533,0.2873,-0.5321,0.1215,0.0898
17640,-1.5778,-10.1179,0.1269,-0.5324,0.1263,0.0890
17648,-1.5060,-10.0604,0.1365,-0.5383,0.1180,0.0890
17656,-1.5514,-10.0916,0.1724,-0.5399,0.1194,0.0869
17665,-1.5443,-10.1179,0.1628,-0.5415,0.1172,0.0866
17673,-1.6041,-10.0892,0.2035,-0.5361,0.1186,0.0839
17680,-1.5179,-10.0628,0.1389,-0.5431,0.1127,0.0818
17688,-1.5419,-10.1035,0.2203,-0.5404,0.1132,0.0815
17696,-1.5371,-10.0892,0.1700,-0.5412,0.1132,0.0789
17704,-1.5897,-10.0580,0.1891,-0.5409,0.1111,0.0770
17713,-1.5826,-10.0509,0.2011,-0.5385,0.1087,0.0770
17720,-1.5586,-10.0341,0.1508,-0.5340,0.1063,0.0743
17728,-1.5778,-10.0437,0.1987,-0.5327,0.1045,0.0733
17736,-1.5921,-10.0820,0.2777,-0.5311,0.1077,0.0714
17744,-1.5586,-10.0892,0.1149,-0.5260,0.1021,0.0714
17753,-1.5874,-10.0173,0.1748,-0.5236,0.1013,0.0701
17761,-1.5251,-10.0173,0.2514,-0.5143,0.1007,0.0711
17768,-1.5514,-10.0006,0.2610,-0.5113,0.0965,0.0658
17776,-1.5251,-10.0556,0.2490,-0.5065,0.0951,0.0650
17784,-1.5945,-10.0317,0.1987,-0.5009,0.0970,0.0666
17793,-1.5467,-9.9862,0.3496,-0.4927,0.0901,0.0634
17801,-1.5682,-10.0389,0.1700,-0.4860,0.0935,0.0597
17808,-1.5945,-10.0245,0.2322,-0.4807,0.0898,0.0634
17816,-1.4964,-9.9814,0.2921,-0.4714,0.0871,0.0600
17824,-1.5203,-10.0078,0.2442,-0.4642,0.0834,0.0581
17832,-1.5107,-10.0293,0.2777,-0.4562,0.0829,0.0538
17841,-1.5467,-9.9910,0.2682,-0.4445,0.0829,0.0520
17849,-1.4748,-9.9575,0.2682,-0.4397,0.0802,0.0552
17856,-1.4844,-9.9982,0.1676,-0.4295,0.0791,0.0517
17864,-1.5083,-9.9647,0.2346,-0.4207,0.0781,0.0490
17872,-1.5227,-9.9120,0.2298,-0.4135,0.0821,0.0480
17881,-1.5682,-9.9671,0.2442,-0.4040,0.0757,0.0472
17889,-1.5323,-9.8928,0.1724,-0.3917,0.0762,0.0474
17896,-1.5993,-9.9048,0.2538,-0.3840,0.0743,0.0453
17904,-1.4772,-9.8761,0.2059,-0.3712,0.0706,0.0402
17912,-1.5347,-9.9096,0.1987,-0.3624,0.0730,0.0405
17921,-1.5778,-9.8809,0.2418,-0.3525,0.0709,0.0400
17929,-1.4700,-9.8450,0.2753,-0.3416,0.0709,0.0357
17937,-1.5131,-9.8521,0.2753,-0.3328,0.0693,0.0325
17944,-1.4676,-9.8066,0.1796,-0.3246,0.0693,0.0357
17952,-1.4676,-9.8569,0.3184,-0.3107,0.0666,0.0333
17960,-1.5706,-9.8043,0.2274,-0.2968,0.0682,0.0285
17969,-1.5347,-9.8497,0.2658,-0.2891,0.0661,0.0274
17977,-1.5490,-9.8114,0.2682,-0.2755,0.0632,0.0221
17984,-1.5060,-9.7971,0.2203,-0.2649,0.0624,0.0208
17992,-1.5323,-9.8162,0.1628,-0.2539,0.0600,0.0192
18000,-1.4653,-9.7923,0.2825,-0.2406,0.0586,0.0197
18009,-1.4964,-9.7540,0.2035,-0.2257,0.0586,0.0168
18017,-1.4629,-9.7516,0.3136,-0.2134,0.0576,0.0136
18025,-1.5538,-9.7659,0.2418,-0.1996,0.0533,0.0125
18032,-1.5107,-9.7540,0.2801,-0.1860,0.0506,0.0120
18040,-1.5012,-9.7707,0.3017,-0.1729,0.0520,0.0069
18049,-1.5371,-9.7276,0.2298,-0.1599,0.0501,0.0077
18057,-1.5467,-9.7348,0.2705,-0.1463,0.0469,0.0048
18065,-1.5299,-9.7659,0.3041,-0.1316,0.0448,0.0061
18072,-1.4341,-9.7252,0.2729,-0.1175,0.0400,0.0021
18080,-1.4605,-9.7109,0.1700,-0.0999,0.0378,0.0013
18088,-1.4509,-9.7085,0.3136,-0.0903,0.0344,-0.0005
18097,-1.4988,-9.7612,0.3089,-0.0759,0.0290,-0.0021
18105,-1.4557,-9.7755,0.3256,-0.0578,0.0269,-0.0037
18113,-1.5060,-9.7085,0.2035,-0.0429,0.0226,-0.0056
18120,-1.4964,-9.6750,0.2490,-0.0264,0.0184,-0.0067
18128,-1.5467,-9.7061,0.3280,-0.0152,0.0171,-0.0096
18137,-1.5227,-9.7516,0.2131,0.0016,0.0104,-0.0104
18145,-1.4868,-9.7707,0.3089,0.0171,0.0072,-0.0091
18153,-1.4868,-9.7851,0.1987,0.0349,0.0019,-0.0107
18160,-1.4605,-9.6606,0.2562,0.0504,-0.0024,-0.0109
18168,-1.4724,-9.7276,0.3424,0.0645,-0.0083,-0.0147
18177,-1.5323,-9.6965,0.2274,0.0778,-0.0139,-0.0160
18185,-1.5107,-9.6630,0.2538,0.0914,-0.0213,-0.0152
18193,-1.5060,-9.7564,0.2873,0.1029,-0.0224,-0.0155
18201,-1.4174,-9.6822,0.2107,0.1210,-0.0296,-0.0189
18208,-1.4700,-9.6893,0.2682,0.1346,-0.0285,-0.0197
18216,-1.5538,-9.7133,0.2274,0.1479,-0.0368,-0.0226
18225,-1.5538,-9.7779,0.2682,0.1625,-0.0426,-0.0240
18233,-1.5299,-9.7995,0.3735,0.1761,-0.0466,-0.0234
18241,-1.5299,-9.7659,0.1963,0.1871,-0.0549,-0.0232
18248,-1.4413,-9.7468,0.2059,0.2033,-0.0525,-0.0285
18256,-1.4916,-9.7779,0.2370,0.2161,-0.0605,-0.0285
18265,-1.5203,-9.7827,0.2179,0.2305,-0.0655,-0.0277
18273,-1.5203,-9.7803,0.3089,0.2425,-0.0698,-0.0293
18281,-1.5060,-9.7827,0.2298,0.2579,-0.0749,-0.0304
18289,-1.5036,-9.7755,0.3065,0.2694,-0.0786,-0.0314
18296,-1.4988,-9.8258,0.3089,0.2801,-0.0847,-0.0325
18305,-1.5802,-9.8809,0.1508,0.2947,-0.0847,-0.0325
18313,-1.4892,-9.8306,0.1820,0.3078,-0.0903,-0.0344
18321,-1.5275,-9.8378,0.2466,0.3192,-0.0941,-0.0322
18329,-1.4916,-9.8521,0.2155,0.3293,-0.0978,-0.0333
18336,-1.4964,-9.8043,0.2298,0.3392,-0.1034,-0.0333
18344,-1.5754,-9.8354,0.2418,0.3485,-0.1039,-0.0328
18353,-1.4533,-9.8402,0.2753,0.3611,-0.1071,-0.0314
18361,-1.5706,-9.8569,0.1437,0.3701,-0.1100,-0.0346
18369,-1.5443,-9.8497,0.1748,0.3776,-0.1119,-0.0341
18377,-1.5275,-9.9264,0.2346,0.3880,-0.1095,-0.0296
18384,-1.5395,-9.8450,0.2107,0.3944,-0.1138,-0.0322
18393,-1.5036,-9.8857,0.2107,0.4005,-0.1170,-0.0320
18401,-1.5802,-9.9766,0.2825,0.4077,-0.1183,-0.0333
18409,-1.6209,-10.0173,0.2227,0.4175,-0.1162,-0.0293
18417,-1.5538,-9.9958,0.1772,0.4221,-0.1199,-0.0333
18424,-1.5586,-9.9192,0.2251,0.4322,-0.1194,-0.0304
18433,-1.5538,-9.9790,0.1460,0.4367,-0.1188,-0.0333
18441,-1.5634,-9.9934,0.1963,0.4463,-0.1207,-0.0312
18449,-1.5730,-10.0221,0.1891,0.4557,-0.1220,-0.0309
18457,-1.5730,-10.0030,0.1580,0.4565,-0.1199,-0.0336
18465,-1.5323,-9.9623,0.2203,0.4655,-0.1194,-0.0322
18472,-1.5347,-10.0269,0.1125,0.4695,-0.1188,-0.0357
18481,-1.5514,-9.9718,0.2155,0.4746,-0.1167,-0.0312
18489,-1.5658,-10.0173,0.2059,0.4783,-0.1148,-0.0298
18497,-1.5419,-10.0724,0.1245,0.4858,-0.1130,-0.0333
18505,-1.5897,-10.0437,0.1963,0.4911,-0.1140,-0.0338
18512,-1.5730,-10.0269,0.2059,0.4938,-0.1140,-0.0352
18521,-1.5467,-10.0628,0.2274,0.4983,-0.1156,-0.0341
18529,-1.5586,-10.0126,0.2418,0.5047,-0.1087,-0.0357
18537,-1.5682,-10.0676,0.1604,0.5087,-0.1114,-0.0341
18545,-1.5778,-10.0963,0.1628,0.5111,-0.1114,-0.0338
18552,-1.5443,-10.0556,0.0862,0.5140,-0.1108,-0.0333
18561,-1.5634,-10.0269,0.2179,0.5175,-0.1130,-0.0362
18569,-1.5610,-10.0916,0.1963,0.5201,-0.1114,-0.0320
18577,-1.6376,-10.0868,0.1556,0.5225,-0.1087,-0.0325
18585,-1.5562,-10.0437,0.1341,0.5268,-0.1082,-0.0298
18593,-1.5443,-10.0509,0.2682,0.5297,-0.1092,-0.0290
18600,-1.5419,-10.0437,0.2179,0.5311,-0.1100,-0.0282
18609,-1.5778,-10.0485,0.1173,0.5305,-0.1090,-0.0269
18617,-1.5730,-10.0844,0.1772,0.5271,-0.1082,-0.0282
18625,-1.5897,-10.1442,0.1484,0.5284,-0.1079,-0.0280
18633,-1.5850,-10.0389,0.1532,0.5249,-0.1077,-0.0234
18640,-1.5921,-10.0628,0.1556,0.5241,-0.1079,-0.0248
18649,-1.5945,-10.0556,0.1053,0.5241,-0.1034,-0.0234
18657,-1.5874,-10.0389,0.0982,0.5188,-0.1082,-0.0211
18665,-1.6352,-10.0796,0.1317,0.5169,-0.1034,-0.0211
18673,-1.5945,-9.9814,0.1317,0.5167,-0.1077,-0.0149
18681,-1.5538,-10.0437,0.0527,0.5081,-0.1047,-0.0173
18689,-1.5562,-10.0293,0.1125,0.5068,-0.1074,-0.0131
18697,-1.6257,-10.0245,0.1173,0.5020,-0.1031,-0.0147
18705,-1.5610,-10.0102,0.1413,0.4978,-0.1071,-0.0115
18713,-1.6113,-10.0556,0.1460,0.4924,-0.1050,-0.0101
18721,-1.5993,-10.0126,0.1484,0.4868,-0.1042,-0.0085
18728,-1.5395,-9.9599,0.1772,0.4823,-0.1069,-0.0067
18737,-1.5586,-10.0006,0.0694,0.4732,-0.1042,-0.0021
