Timestamp,AccelX,AccelY,AccelZ,GyroX,GyroY,GyroZ
407,-0.6488,-9.4451,-2.7031,-0.0155,-0.0466,0.0240
414,-0.6057,-9.5792,-2.7126,-0.0139,-0.0320,0.0288
422,-0.5794,-9.5122,-2.7749,-0.0120,-0.0181,0.0253
431,-0.6153,-9.4906,-2.7845,-0.0099,0.0011,0.0179
438,-0.7542,-9.3733,-2.8036,-0.0051,0.0147,0.0245
446,-0.8811,-9.2775,-2.7294,-0.0051,0.0224,0.0376
454,-0.8284,-9.3302,-2.6935,-0.0075,0.0237,0.0485
462,-0.7590,-9.3733,-2.8706,-0.0053,0.0232,0.0472
471,-0.8787,-9.3972,-2.7629,-0.0091,0.0211,0.0352
479,-0.9888,-9.4212,-2.7749,-0.0091,-0.0011,0.0298
486,-0.8930,-9.4020,-2.7031,-0.0144,-0.0112,0.0224
494,-0.9170,-9.3518,-2.8252,-0.0139,-0.0139,0.0232
502,-0.8332,-9.4763,-2.7845,-0.0149,-0.0115,0.0229
510,-0.8068,-9.5122,-2.6791,-0.0080,0.0029,0.0149
519,-0.8428,-9.6175,-2.5905,-0.0045,-0.0165,0.0120
526,-0.7901,-9.5600,-2.5786,0.0040,-0.0237,0.0096
534,-0.7638,-9.4786,-2.6719,0.0080,-0.0088,0.0107
542,-0.8068,-9.5624,-2.6887,0.0125,0.0141,0.0173
550,-0.8691,-9.4858,-2.7485,0.0195,0.0357,0.0256
559,-0.9337,-9.4140,-2.6671,0.0245,0.0352,0.0301
567,-0.8140,-9.4332,-2.7773,0.0285,0.0253,0.0373
574,-0.8116,-9.4236,-2.7581,0.0317,0.0442,0.0301
582,-0.8452,-9.4260,-2.6935,0.0232,0.0544,0.0216
590,-0.8092,-9.4308,-2.7007,0.0256,0.0493,0.0133
599,-0.8499,-9.5265,-2.7390,0.0195,0.0400,0.0032
607,-0.7638,-9.4978,-2.5905,0.0232,0.0384,-0.0053
614,-0.6680,-9.5553,-2.6839,0.0282,0.0528,-0.0176
622,-0.7135,-9.5648,-2.5259,0.0280,0.0682,-0.0149
630,-0.8356,-9.6630,-2.6432,0.0320,0.0911,-0.0120
638,-0.9673,-9.6510,-2.7701,0.0296,0.1170,0.0003
647,-1.2498,-9.5146,-2.7940,0.0250,0.1266,0.0320
655,-1.5060,-9.4068,-2.7174,0.0176,0.1050,0.0650
662,-1.4174,-9.4954,-2.8539,0.0144,0.0533,0.0791
670,-1.3240,-9.5098,-2.7916,0.0096,0.0197,0.0719
678,-1.2115,-9.4930,-2.7078,0.0155,-0.0160,0.0453
687,-1.0750,-9.5098,-2.8252,0.0128,-0.0661,0.0096
695,-1.0271,-9.5217,-2.6600,0.0141,-0.1013,-0.0165
702,-0.9433,-9.4595,-2.7198,0.0128,-0.1204,-0.0242
710,-0.8763,-9.4906,-2.6815,0.0083,-0.1047,-0.0160
718,-0.8859,-9.5648,-2.6360,0.0099,-0.0594,-0.0056
727,-0.8835,-9.5984,-2.5498,0.0072,-0.0344,0.0155
735,-0.9409,-9.5505,-2.6504,0.0117,-0.0205,0.0330
743,-0.8092,-9.4978,-2.5594,0.0080,-0.0088,0.0416
750,-0.8140,-9.5146,-2.5642,0.0080,-0.0037,0.0469
758,-0.8859,-9.5960,-2.7342,0.0080,-0.0021,0.0410
766,-0.9122,-9.5313,-2.7294,0.0123,-0.0048,0.0322
775,-0.9218,-9.5217,-2.7390,0.0149,-0.0224,0.0250
783,-0.9290,-9.5481,-2.8395,0.0115,-0.0344,0.0163
790,-1.0008,-9.5098,-2.8371,0.0053,-0.0384,0.0117
798,-1.0056,-9.5122,-2.8180,0.0072,-0.0485,0.0051
806,-1.0367,-9.5409,-2.7701,0.0032,-0.0648,-0.0043
815,-1.0032,-9.3733,-2.8252,0.0037,-0.0823,-0.0075
823,-0.9313,-9.4691,-2.7869,0.0064,-0.0791,-0.0069
831,-0.8404,-9.4810,-2.7366,0.0107,-0.0770,-0.0061
838,-0.7398,-9.4954,-2.7174,0.0147,-0.0671,0.0043
846,-0.7829,-9.4523,-2.6600,0.0200,-0.0432,0.0173
855,-0.7183,-9.3901,-2.6288,0.0221,-0.0205,0.0312
863,-0.6608,-9.4284,-2.6671,0.0195,0.0048,0.0400
871,-0.7494,-9.4068,-2.8826,0.0189,0.0282,0.0506
878,-0.8499,-9.4499,-2.8036,0.0136,0.0397,0.0557
886,-0.9026,-9.3996,-2.7557,0.0115,0.0584,0.0538
894,-0.9816,-9.4164,-2.8132,0.0064,0.0626,0.0573
903,-1.1157,-9.4834,-2.8467,0.0029,0.0525,0.0608
911,-1.1684,-9.4523,-2.7605,0.0027,0.0402,0.0605
918,-1.2546,-9.5433,-2.7653,0.0040,0.0133,0.0621
926,-1.1995,-9.5002,-2.7725,0.0072,-0.0144,0.0738
934,-1.1181,-9.5026,-2.7964,0.0152,-0.0216,0.0786
943,-0.9768,-9.5002,-2.6743,0.0165,-0.0432,0.0770
951,-0.8667,-9.4595,-2.7366,0.0200,-0.0394,0.0682
959,-0.7207,-9.4379,-2.6671,0.0187,-0.0368,0.0546
966,-0.7207,-9.5026,-2.6911,0.0131,-0.0392,0.0440
974,-0.7685,-9.5672,-2.7294,0.0117,-0.0136,0.0418
983,-0.8715,-9.5122,-2.6624,0.0144,0.0029,0.0400
991,-0.8380,-9.6079,-2.6815,0.0179,0.0005,0.0416
999,-0.8284,-9.5672,-2.6767,0.0149,-0.0003,0.0312
1006,-0.9577,-9.4643,-2.6695,0.0128,-0.0005,0.0309
1014,-0.9840,-9.5146,-2.6073,0.0123,-0.0136,0.0349
1022,-1.0104,-9.5050,-2.6719,0.0056,-0.0093,0.0429
1031,-0.8978,-9.4619,-2.5474,0.0045,-0.0101,0.0434
1039,-0.7877,-9.4499,-2.5618,0.0016,-0.0160,0.0389
1047,-0.8308,-9.5122,-2.5402,-0.0013,-0.0187,0.0384
1054,-0.9409,-9.4930,-2.5235,-0.0072,-0.0160,0.0397
1062,-0.8452,-9.5385,-2.5163,-0.0083,-0.0205,0.0440
1071,-0.8523,-9.6630,-2.5857,0.0003,-0.0091,0.0378
1079,-0.9361,-9.7109,-2.5666,0.0061,-0.0053,0.0261
1087,-1.0487,-9.6822,-2.4995,0.0139,-0.0043,0.0224
1094,-1.0367,-9.5936,-2.3990,0.0163,-0.0192,0.0179
1102,-0.9218,-9.6367,-2.4373,0.0189,-0.0445,0.0091
1111,-1.0343,-9.5768,-2.5546,0.0203,-0.0709,0.0085
1119,-0.8763,-9.5744,-2.4924,0.0216,-0.0951,0.0173
1127,-0.8811,-9.6223,-2.5762,0.0179,-0.0863,0.0248
1135,-0.8715,-9.6606,-2.5690,0.0104,-0.0632,0.0378
1142,-0.8595,-9.6127,-2.7342,0.0045,-0.0304,0.0538
1150,-0.9146,-9.5241,-2.7414,0.0011,-0.0043,0.0634
1159,-0.9984,-9.5768,-2.7150,0.0019,0.0091,0.0626
1167,-1.2234,-9.5098,-2.7485,0.0043,0.0104,0.0528
1175,-1.1516,-9.4643,-2.6169,0.0139,-0.0250,0.0424
1182,-1.0415,-9.4763,-2.7270,0.0136,-0.0799,0.0226
1190,-0.9912,-9.4068,-2.7821,0.0117,-0.1098,0.0024
1199,-0.8140,-9.4284,-2.7270,0.0184,-0.1015,-0.0133
1207,-0.8619,-9.4571,-2.7581,0.0240,-0.0946,-0.0179
1215,-0.8859,-9.4068,-2.6935,0.0250,-0.0930,-0.0067
1223,-0.8739,-9.3470,-2.8802,0.0187,-0.0648,0.0120
1230,-0.9002,-9.3015,-2.8395,0.0133,-0.0218,0.0400
1239,-0.8092,-9.2967,-2.7749,0.0029,0.0173,0.0640
1247,-0.9553,-9.4020,-2.8778,-0.0035,0.0304,0.0775
1255,-1.0175,-9.4116,-2.7701,-0.0181,0.0144,0.0914
1263,-0.9170,-9.6343,-2.7581,-0.0149,-0.0059,0.0874
1270,-0.8260,-9.7229,-2.8299,-0.0045,-0.0181,0.0711
1278,-0.8164,-9.5960,-2.7461,0.0131,-0.0155,0.0432
1287,-0.8356,-9.6367,-2.6025,0.0173,-0.0381,0.0173
1295,-0.8859,-9.5912,-2.6456,0.0266,-0.0568,0.0021
1303,-0.8859,-9.5840,-2.5331,0.0362,-0.0805,-0.0112
1311,-0.7997,-9.5696,-2.5881,0.0437,-0.0935,-0.0269
1318,-0.7183,-9.3996,-2.5833,0.0472,-0.0994,-0.0296
1327,-0.5890,-9.3877,-2.5498,0.0360,-0.0866,-0.0125
1335,-0.6416,-9.4236,-2.7485,0.0211,-0.0285,0.0187
1343,-0.6752,-9.5289,-2.5977,0.0096,0.0346,0.0536
1351,-0.7781,-9.5170,-2.6791,0.0061,0.0821,0.0834
1358,-0.7039,-9.4954,-2.6336,-0.0016,0.1135,0.1061
1367,-0.8978,-9.5385,-2.7318,-0.0019,0.1263,0.1095
1375,-0.8954,-9.6582,-2.6312,0.0072,0.1239,0.0895
1383,-0.9816,-9.6702,-2.5786,0.0176,0.1023,0.0549
1391,-1.0151,-9.6438,-2.5881,0.0274,0.0520,0.0264
1399,-1.0056,-9.6582,-2.6647,0.0242,0.0067,0.0109
1406,-1.0534,-9.6007,-2.7677,0.0266,-0.0072,-0.0013
1415,-1.1061,-9.5361,-2.6384,0.0256,-0.0200,0.0040
1423,-1.0942,-9.5122,-2.6552,0.0195,-0.0309,0.0107
1431,-0.9768,-9.4499,-2.5881,0.0195,-0.0328,0.0218
1439,-0.6895,-9.4475,-2.6791,0.0147,-0.0320,0.0266
1446,-0.6201,-9.4691,-2.5091,0.0133,-0.0053,0.0250
1455,-0.5339,-9.4571,-2.5833,0.0083,0.0218,0.0250
1463,-0.6297,-9.4810,-2.6408,0.0101,0.0400,0.0360
1471,-0.7111,-9.6103,-2.6743,0.0115,0.0717,0.0498
1479,-0.9290,-9.6103,-2.7246,0.0093,0.1103,0.0578
1486,-1.0702,-9.6774,-2.7653,0.0056,0.1018,0.0650
1495,-1.1372,-9.5792,-2.5642,0.0051,0.0757,0.0679
1503,-1.0271,-9.5888,-2.5043,0.0043,0.0261,0.0514
1511,-0.9744,-9.5026,-2.5953,0.0051,-0.0285,0.0277
1519,-0.9266,-9.5888,-2.7126,0.0093,-0.0450,0.0168
1527,-0.9337,-9.5433,-2.5738,0.0141,-0.0512,0.0032
1534,-0.8882,-9.5193,-2.5043,0.0205,-0.0570,-0.0040
1543,-0.7470,-9.4140,-2.6073,0.0205,-0.0661,-0.0072
1551,-0.7733,-9.4954,-2.7605,0.0067,-0.0306,-0.0011
1559,-0.8188,-9.5193,-2.7749,-0.0064,0.0197,0.0101
1567,-0.8763,-9.5313,-2.7031,-0.0136,0.0424,0.0261
1574,-0.9888,-9.6031,-2.6600,-0.0205,0.0429,0.0448
1583,-0.9744,-9.6295,-2.6336,-0.0152,0.0546,0.0453
1591,-0.9649,-9.5098,-2.5235,-0.0123,0.0474,0.0424
1599,-0.9361,-9.4858,-2.5139,-0.0048,0.0149,0.0290
1607,-0.9242,-9.4834,-2.5786,0.0019,-0.0035,0.0152
1615,-0.8571,-9.5768,-2.5355,0.0045,-0.0341,0.0043
1623,-0.8547,-9.5074,-2.6121,0.0075,-0.0309,0.0085
1631,-0.9218,-9.5624,-2.7198,0.0101,-0.0024,0.0208
1639,-0.9194,-9.4834,-2.6983,0.0128,0.0256,0.0296
1647,-0.9625,-9.3733,-2.7054,0.0179,0.0421,0.0349
1655,-0.9170,-9.3613,-2.7366,0.0226,0.0421,0.0325
1662,-0.9936,-9.4164,-2.8419,0.0224,0.0570,0.0274
1671,-1.1229,-9.5217,-2.6169,0.0306,0.0581,0.0226
1679,-1.0511,-9.5385,-2.5857,0.0378,0.0277,0.0208
1687,-1.0558,-9.5265,-2.6408,0.0437,0.0032,0.0155
1695,-1.0175,-9.4906,-2.6671,0.0418,0.0005,0.0173
1703,-1.0846,-9.4260,-2.8036,0.0389,0.0045,0.0288
1711,-1.1636,-9.4643,-2.6647,0.0237,0.0045,0.0413
1719,-1.2139,-9.4954,-2.7533,0.0165,-0.0104,0.0522
1727,-1.0439,-9.5481,-2.7892,0.0104,-0.0176,0.0592
1735,-0.7997,-9.4763,-2.6001,0.0101,-0.0120,0.0501
1743,-0.7614,-9.4882,-2.6480,-0.0011,-0.0005,0.0434
1751,-0.8212,-9.6534,-2.4876,0.0027,-0.0152,0.0376
1759,-0.7949,-9.6965,-2.4828,0.0248,-0.0208,0.0234
1767,-0.8499,-9.6558,-2.5522,0.0389,0.0301,0.0109
1775,-0.9864,-9.6031,-2.4756,0.0365,0.0370,0.0163
1783,-1.0630,-9.6199,-2.2458,0.0504,0.0165,0.0192
1792,-0.9792,-9.6079,-2.5187,0.0434,-0.0096,0.0011
1799,-1.0989,-9.5361,-2.6169,0.0400,-0.0059,-0.0077
1807,-1.1947,-9.4739,-2.5786,0.0229,-0.0075,0.0061
1815,-1.1061,-9.4595,-2.4086,0.0003,-0.0370,0.0261
1823,-0.9457,-9.5433,-2.5067,-0.0109,-0.0546,0.0392
1831,-0.9553,-9.6103,-2.5450,-0.0171,-0.0277,0.0418
1839,-0.9553,-9.6175,-2.4924,-0.0208,-0.0096,0.0477
1847,-0.9912,-9.6391,-2.5115,-0.0280,0.0024,0.0514
1855,-1.0439,-9.5984,-2.4995,-0.0280,-0.0088,0.0458
1863,-0.9960,-9.6175,-2.5786,-0.0165,-0.0368,0.0282
1871,-1.1133,-9.5720,-2.4900,-0.0075,-0.0099,0.0133
1880,-1.0271,-9.5098,-2.5809,0.0011,-0.0357,0.0056
1887,-0.9936,-9.3134,-2.6073,0.0139,-0.0602,0.0051
1895,-0.8667,-9.3757,-2.6671,0.0189,-0.0608,0.0128
1903,-0.8021,-9.5984,-2.5833,0.0218,-0.0410,0.0027
1911,-0.8523,-9.4332,-2.5331,0.0171,-0.0280,0.0035
1920,-0.9290,-9.3948,-2.5283,0.0077,-0.0416,0.0203
1927,-0.9984,-9.5361,-2.4397,0.0019,-0.0394,0.0472
1935,-1.0199,-9.5816,-2.5187,0.0040,-0.0160,0.0608
1943,-1.0127,-9.6223,-2.6600,0.0136,-0.0085,0.0637
1951,-0.9529,-9.6462,-2.6217,0.0322,-0.0101,0.0488
1959,-0.9888,-9.5505,-2.6600,0.0370,-0.0147,0.0317
1968,-0.9816,-9.4236,-2.6097,0.0344,-0.0354,0.0133
1975,-1.0702,-9.5672,-2.6983,0.0320,-0.0624,0.0107
1983,-1.0918,-9.5744,-2.6647,0.0384,-0.0581,0.0037
1991,-1.0439,-9.5026,-2.7629,0.0370,-0.0650,-0.0013
1999,-1.0487,-9.4763,-2.7605,0.0280,-0.0754,0.0029
2008,-0.9792,-9.4475,-2.7007,0.0176,-0.0719,0.0027
2015,-0.8380,-9.4427,-2.6887,0.0179,-0.0754,0.0168
2023,-0.7638,-9.6414,-2.6480,0.0232,-0.0703,0.0258
2031,-0.8715,-9.7013,-2.6719,0.0338,-0.0357,0.0229
2039,-0.8859,-9.5840,-2.6073,0.0362,-0.0128,0.0312
2048,-0.8332,-9.6079,-2.5929,0.0373,-0.0221,0.0442
2056,-0.8188,-9.6199,-2.6791,0.0296,-0.0083,0.0410
2063,-0.9481,-9.7707,-2.4924,0.0381,-0.0168,0.0429
2071,-1.0151,-9.6965,-2.5762,0.0602,-0.0357,0.0506
2079,-0.9170,-9.6606,-2.3846,0.0834,-0.0597,0.0405
2087,-0.6919,-9.5481,-2.7485,0.0821,-0.0829,0.0173
2096,-0.7518,-9.2464,-2.8802,0.0560,-0.0477,-0.0008
2103,-1.0247,-9.3015,-2.6624,0.0488,-0.0765,0.0144
2111,-1.4054,-9.0692,-2.5187,0.0469,-0.1207,0.0629
2119,-0.9577,-9.1291,-2.4038,0.0376,-0.1921,0.1156
2127,-0.3735,-9.2177,-2.0853,0.0043,-0.1863,0.0767
2136,-0.3041,-9.5098,-1.6807,-0.0365,-0.2228,0.0560
2143,0.2682,-9.7013,-1.9154,-0.0016,-0.2073,0.0328
2151,-0.0168,-9.9479,-1.9944,0.0258,-0.1108,-0.0157
2159,-1.0127,-9.7923,-1.1372,0.0706,-0.0322,-0.0120
2167,-1.1636,-9.8904,-1.8292,0.0666,0.0898,0.0429
2176,-1.5490,-10.1227,-1.3408,0.0671,0.2244,0.0861
2184,-1.5155,-9.9479,-1.9896,0.0693,0.4575,0.1370
2191,-4.2521,-9.6845,-2.7916,0.0072,0.7869,0.2643
2199,-3.1149,-9.2560,-1.8627,-0.0717,1.3102,0.5087
2207,-2.6504,-8.6886,-1.4030,-0.2140,1.5314,0.7290
2215,-2.1021,-9.0884,-0.2035,-0.3874,1.4538,0.9387
2224,-1.8028,-9.1889,0.7661,-0.4141,1.3376,1.0717
2231,-1.0534,-8.9902,0.6943,-0.3792,1.2537,1.0978
2239,-0.8547,-8.8059,0.6584,-0.3264,1.1658,1.0653
2247,-0.7494,-8.8705,0.7063,-0.2601,1.0770,0.9918
2255,-0.6823,-9.1458,0.7518,-0.1961,0.9542,0.8988
2264,-0.5411,-9.5385,0.7230,-0.1354,0.8260,0.7807
2272,-0.5531,-9.8378,0.8068,-0.0669,0.6893,0.6438
2279,-0.5722,-10.1658,0.7015,0.0027,0.5745,0.4887
2287,-0.5986,-10.3549,0.5866,0.0602,0.4698,0.3411
2295,-0.7015,-10.4267,0.5578,0.0959,0.3936,0.2041
2304,-0.8715,-10.2448,0.5650,0.1274,0.3168,0.1058
2312,-1.1277,-10.1394,0.5914,0.1625,0.2254,0.0440
2319,-1.1875,-9.9048,0.7207,0.2180,0.1002,0.0088
2327,-1.1588,-9.8162,0.7925,0.2891,-0.0330,-0.0237
2335,-1.2354,-9.5289,0.7422,0.3672,-0.1604,-0.0389
2343,-1.2378,-9.4092,0.6704,0.4503,-0.2649,-0.0301
2352,-1.3408,-9.3158,0.5267,0.5124,-0.3536,-0.0149
2360,-1.3719,-9.2823,0.4645,0.5521,-0.4365,0.0040
2367,-1.3455,-9.3733,0.3831,0.5670,-0.5252,0.0189
2375,-1.3096,-9.5337,0.3400,0.5724,-0.6155,0.0266
2383,-1.2594,-9.7444,0.2586,0.5825,-0.6853,0.0256
2392,-1.2402,-9.9886,0.3472,0.5969,-0.7402,0.0136
2400,-1.2378,-10.0963,0.3496,0.6126,-0.7839,-0.0021
2407,-1.1444,-10.1586,0.4405,0.6430,-0.8314,-0.0485
2415,-1.1205,-10.3094,0.5243,0.6957,-0.8934,-0.1066
2423,-1.0534,-10.3358,0.5962,0.7738,-0.9646,-0.1732
2432,-0.9433,-10.3932,0.5890,0.8575,-1.0328,-0.2553
2440,-0.9960,-10.3980,0.5842,0.9387,-1.0914,-0.3397
2448,-1.1803,-10.5082,0.4788,1.0080,-1.1431,-0.4093
2455,-1.2354,-10.4818,0.4262,1.0632,-1.1863,-0.4591
2463,-1.3838,-10.4794,0.3950,1.1080,-1.2353,-0.4927
2471,-1.4269,-10.5417,0.4070,1.1402,-1.2828,-0.5044
2480,-1.5562,-10.5297,0.2825,1.1610,-1.3320,-0.4919
2488,-1.6472,-10.5010,0.1484,1.1610,-1.3725,-0.4599
2495,-1.8268,-10.4818,0.0838,1.1386,-1.4077,-0.4077
2503,-1.8938,-10.4483,-0.1197,1.0944,-1.4344,-0.3336
2511,-1.9225,-10.3310,-0.1844,1.0483,-1.4437,-0.2513
2520,-1.9513,-10.3310,-0.3089,0.9822,-1.4528,-0.1604
2528,-1.9034,-10.3525,-0.2825,0.9153,-1.4594,-0.0687
2536,-1.8555,-10.4483,-0.2705,0.8434,-1.4552,0.0051
2543,-1.6975,-10.4220,-0.2634,0.7791,-1.4429,0.0693
2551,-1.6233,-10.4483,-0.2562,0.7272,-1.4202,0.1175
2560,-1.5586,-10.5225,-0.1820,0.6773,-1.3853,0.1476
2568,-1.4413,-10.5800,-0.1173,0.6451,-1.3438,0.1609
2576,-1.4341,-10.6494,-0.0024,0.6222,-1.3049,0.1625
2583,-1.3886,-10.7069,-0.0575,0.6086,-1.2606,0.1556
2591,-1.3144,-10.8170,-0.0239,0.6075,-1.2108,0.1346
2599,-1.3096,-10.8146,0.0575,0.6102,-1.1551,0.1132
2608,-1.2833,-10.8673,-0.0479,0.6230,-1.0872,0.0885
2616,-1.2354,-10.8386,-0.0024,0.6344,-1.0174,0.0616
2624,-1.3144,-10.8194,0.0599,0.6462,-0.9377,0.0301
2631,-1.2115,-10.8529,0.0144,0.6667,-0.8583,0.0040
2639,-1.2905,-10.8721,0.0766,0.6925,-0.7719,-0.0232
2648,-1.2594,-10.8362,0.1101,0.7144,-0.6920,-0.0458
2656,-1.2689,-10.8146,-0.0311,0.7389,-0.6081,-0.0743
2664,-1.3001,-10.7141,0.0838,0.7613,-0.5116,-0.0989
2671,-1.2929,-10.7524,0.1341,0.7847,-0.4162,-0.1218
2679,-1.2833,-10.8002,0.1006,0.8098,-0.3176,-0.1514
2688,-1.2019,-10.7691,0.0024,0.8303,-0.2220,-0.1825
2696,-1.1899,-10.8338,0.1030,0.8524,-0.1247,-0.2182
2704,-1.0942,-10.8122,0.0575,0.8783,-0.0301,-0.2590
2711,-1.0726,-10.8386,0.0646,0.9097,0.0605,-0.3054
2719,-1.1325,-10.8338,0.1197,0.9465,0.1466,-0.3581
2727,-1.1420,-10.8194,0.1149,0.9856,0.2225,-0.4098
2736,-1.0942,-10.7787,0.2346,1.0421,0.2950,-0.4663
2744,-1.1756,-10.7595,0.2251,1.0896,0.3536,-0.5089
2752,-1.2091,-10.7859,0.1844,1.1343,0.4077,-0.5377
2759,-1.3072,-10.6949,0.1820,1.1716,0.4517,-0.5574
2767,-1.3360,-10.7188,0.1437,1.2017,0.4962,-0.5585
2776,-1.3982,-10.6949,0.0670,1.2196,0.5300,-0.5537
2784,-1.5203,-10.6398,0.0527,1.2252,0.5526,-0.5372
2792,-1.5395,-10.5249,0.0790,1.2217,0.5750,-0.5129
2799,-1.6257,-10.5201,0.0215,1.2049,0.5875,-0.4719
2807,-1.5993,-10.4866,-0.0766,1.1860,0.5945,-0.4285
2816,-1.6328,-10.3932,-0.0096,1.1578,0.5910,-0.3789
2824,-1.6281,-10.4004,-0.0742,1.1258,0.5865,-0.3317
2832,-1.6089,-10.2663,-0.0527,1.0869,0.5700,-0.2806
2840,-1.6352,-10.2137,-0.1556,1.0445,0.5558,-0.2260
2847,-1.5802,-10.2137,-0.0742,0.9939,0.5340,-0.1767
2855,-1.5826,-10.2065,-0.0335,0.9478,0.5095,-0.1322
2864,-1.5490,-10.1442,-0.0790,0.8958,0.4804,-0.0847
2872,-1.5395,-10.0533,-0.0838,0.8444,0.4474,-0.0514
2880,-1.5347,-10.0293,-0.1245,0.7957,0.4088,-0.0205
2887,-1.4174,-10.0652,-0.0311,0.7493,0.3691,0.0107
2895,-1.3791,-10.0149,-0.0263,0.7029,0.3254,0.0376
2904,-1.4102,-9.9862,0.0335,0.6590,0.2830,0.0565
2912,-1.4916,-9.9766,0.0766,0.6169,0.2350,0.0770
2920,-1.4246,-9.9814,0.0503,0.5710,0.1935,0.0933
2928,-1.4246,-9.9096,0.0790,0.5332,0.1514,0.1047
2935,-1.3695,-9.9288,0.0431,0.4892,0.1058,0.1175
2944,-1.3024,-9.9000,0.1006,0.4498,0.0674,0.1228
2952,-1.3024,-9.9335,0.0168,0.4146,0.0298,0.1247
2960,-1.2713,-9.9814,0.0862,0.3762,-0.0045,0.1242
2968,-1.2737,-9.8833,0.0311,0.3427,-0.0445,0.1194
2975,-1.2737,-9.8138,-0.0120,0.3158,-0.0773,0.1119
2983,-1.1899,-9.8737,0.0599,0.2846,-0.1071,0.0978
2992,-1.1947,-9.8210,0.0287,0.2657,-0.1364,0.0799
3000,-1.1636,-9.7468,0.1460,0.2454,-0.1599,0.0600
3008,-1.1205,-9.7588,0.1053,0.2326,-0.1841,0.0386
3016,-1.1229,-9.6917,0.1772,0.2230,-0.2113,0.0115
3023,-1.1085,-9.7013,0.2298,0.2169,-0.2342,-0.0181
3032,-1.1205,-9.6343,0.2562,0.2225,-0.2542,-0.0480
3040,-1.1037,-9.6845,0.1844,0.2220,-0.2750,-0.0786
3048,-1.1229,-9.6223,0.2682,0.2308,-0.2939,-0.1092
3056,-1.1229,-9.5696,0.2131,0.2409,-0.3152,-0.1388
3063,-1.1444,-9.6295,0.1293,0.2438,-0.3315,-0.1615
3072,-1.2450,-9.6223,0.2753,0.2457,-0.3520,-0.1767
3080,-1.2713,-9.5289,0.1628,0.2430,-0.3683,-0.1852
3088,-1.3431,-9.5265,0.0982,0.2305,-0.3802,-0.1921
3096,-1.3360,-9.5433,0.0718,0.2238,-0.3930,-0.1873
3104,-1.2881,-9.5241,0.0790,0.2028,-0.4037,-0.1777
3111,-1.3479,-9.4954,0.0096,0.1799,-0.4114,-0.1663
3120,-1.3264,-9.4643,0.0646,0.1474,-0.4162,-0.1516
3128,-1.3838,-9.5002,-0.0862,0.1138,-0.4247,-0.1276
3136,-1.3886,-9.4068,0.0575,0.0781,-0.4250,-0.1066
3144,-1.4293,-9.3709,-0.1532,0.0381,-0.4271,-0.0767
3151,-1.3767,-9.3637,-0.0431,0.0037,-0.4293,-0.0488
3160,-1.4389,-9.4284,-0.1053,-0.0386,-0.4269,-0.0208
3168,-1.4006,-9.3901,0.0168,-0.0746,-0.4279,0.0107
3176,-1.4700,-9.3661,-0.0503,-0.1087,-0.4167,0.0389
3184,-1.3958,-9.4164,-0.1101,-0.1498,-0.4141,0.0685
3192,-1.3958,-9.4116,-0.0599,-0.1865,-0.3986,0.0951
3200,-1.4102,-9.3733,-0.0479,-0.2238,-0.3880,0.1191
3208,-1.3527,-9.3901,-0.0168,-0.2547,-0.3717,0.1455
3216,-1.3599,-9.4403,-0.0455,-0.2899,-0.3528,0.1689
3224,-1.3503,-9.4475,-0.0622,-0.3333,-0.3325,0.1964
3232,-1.4413,-9.4715,-0.1676,-0.3720,-0.3011,0.2225
3239,-1.3312,-9.5289,-0.0239,-0.4130,-0.2713,0.2417
3248,-1.3408,-9.6055,-0.0335,-0.4511,-0.2369,0.2649
3256,-1.2761,-9.6558,-0.1101,-0.4914,-0.2022,0.2814
3264,-1.2689,-9.6319,-0.0383,-0.5260,-0.1657,0.2936
3272,-1.3072,-9.6750,-0.1341,-0.5553,-0.1234,0.3000
3280,-1.2665,-9.6678,-0.0215,-0.5809,-0.0805,0.3070
3288,-1.1947,-9.7588,0.0455,-0.6062,-0.0394,0.3064
3296,-1.2186,-9.7923,0.0383,-0.6203,0.0104,0.2998
3304,-1.2043,-9.8689,-0.0215,-0.6342,0.0565,0.2992
3312,-1.2617,-9.9096,0.0790,-0.6467,0.1029,0.2888
3320,-1.2234,-9.9311,0.1269,-0.6528,0.1450,0.2755
3328,-1.2210,-9.9671,0.0670,-0.6579,0.1996,0.2614
3336,-1.1875,-10.0341,0.1173,-0.6587,0.2438,0.2462
3344,-1.1899,-9.9838,0.1365,-0.6600,0.2883,0.2268
3352,-1.2115,-10.0509,0.0646,-0.6579,0.3352,0.2068
3360,-1.2306,-10.0916,0.1269,-0.6523,0.3792,0.1849
3367,-1.2426,-10.1131,0.1173,-0.6427,0.4165,0.1676
3376,-1.2139,-10.1730,0.1365,-0.6371,0.4572,0.1492
3384,-1.2378,-10.1299,0.2586,-0.6318,0.4938,0.1332
3392,-1.2977,-10.2089,0.1700,-0.6251,0.5273,0.1196
3400,-1.2905,-10.1634,0.1293,-0.6233,0.5532,0.1082
3408,-1.3623,-10.2065,0.1628,-0.6195,0.5780,0.1005
3416,-1.3743,-10.2903,0.1341,-0.6217,0.5937,0.0973
3424,-1.3862,-10.2089,0.1724,-0.6246,0.6145,0.0954
3432,-1.4126,-10.2735,0.1413,-0.6312,0.6219,0.0959
3440,-1.3815,-10.2161,0.2155,-0.6342,0.6275,0.0962
3448,-1.4485,-10.2855,0.2203,-0.6384,0.6297,0.1034
3456,-1.4389,-10.3046,0.1867,-0.6459,0.6273,0.1082
3464,-1.5083,-10.3884,0.1939,-0.6547,0.6195,0.1172
3472,-1.4341,-10.4076,0.2059,-0.6667,0.6083,0.1279
3480,-1.4509,-10.4028,0.2131,-0.6797,0.5961,0.1383
3488,-1.4772,-10.4148,0.2035,-0.6973,0.5780,0.1516
3496,-1.5227,-10.4579,0.0551,-0.7186,0.5553,0.1620
3504,-1.5514,-10.4387,0.1556,-0.7442,0.5356,0.1804
3512,-1.5012,-10.4794,0.2346,-0.7645,0.5057,0.1977
3520,-1.4988,-10.5225,0.0718,-0.7887,0.4786,0.2137
3528,-1.5395,-10.5177,0.1077,-0.8220,0.4572,0.2281
3536,-1.5060,-10.5704,0.1508,-0.8513,0.4293,0.2465
3544,-1.5299,-10.5800,0.1437,-0.8777,0.3973,0.2606
3552,-1.4940,-10.5632,0.1460,-0.9097,0.3698,0.2755
3560,-1.5251,-10.6805,0.1676,-0.9366,0.3424,0.2848
3568,-1.4533,-10.6183,0.2825,-0.9606,0.3064,0.2971
3576,-1.5060,-10.6111,0.1556,-0.9811,0.2769,0.3038
3585,-1.4222,-10.7380,0.1772,-0.9998,0.2489,0.3011
3592,-1.4485,-10.7452,0.2538,-1.0155,0.2222,0.3040
3600,-1.3767,-10.7308,0.2322,-1.0253,0.1966,0.3003
3608,-1.3719,-10.7069,0.3376,-1.0333,0.1703,0.2950
3616,-1.3695,-10.7907,0.2346,-1.0387,0.1495,0.2859
3624,-1.3479,-10.6781,0.2203,-1.0381,0.1276,0.2774
3632,-1.4102,-10.7763,0.3184,-1.0403,0.1071,0.2667
3640,-1.3958,-10.7356,0.3448,-1.0347,0.0903,0.2566
3648,-1.3934,-10.7045,0.2346,-1.0312,0.0743,0.2403
3656,-1.3910,-10.6901,0.2801,-1.0248,0.0605,0.2265
3664,-1.4126,-10.7212,0.3543,-1.0166,0.0496,0.2164
3673,-1.3599,-10.6279,0.2274,-1.0027,0.0365,0.2017
3680,-1.3503,-10.6326,0.3160,-0.9920,0.0290,0.1892
3688,-1.3862,-10.6303,0.2921,-0.9787,0.0176,0.1780
3696,-1.3527,-10.5848,0.3112,-0.9579,0.0067,0.1668
3704,-1.3503,-10.6303,0.2682,-0.9385,0.0024,0.1567
3713,-1.3024,-10.5536,0.3663,-0.9164,-0.0024,0.1444
3720,-1.4222,-10.5034,0.3903,-0.8966,-0.0085,0.1356
3728,-1.3096,-10.4986,0.3232,-0.8783,-0.0224,0.1319
3736,-1.3455,-10.5465,0.3160,-0.8556,-0.0197,0.1242
3744,-1.4102,-10.4794,0.3543,-0.8322,-0.0250,0.1188
3752,-1.3264,-10.4124,0.3400,-0.8114,-0.0312,0.1156
3761,-1.3743,-10.4483,0.3663,-0.7887,-0.0309,0.1170
3768,-1.4461,-10.3693,0.3041,-0.7767,-0.0384,0.1172
3776,-1.3767,-10.3453,0.3448,-0.7552,-0.0408,0.1218
3784,-1.4126,-10.3621,0.2849,-0.7416,-0.0400,0.1303
3792,-1.4557,-10.2807,0.2418,-0.7266,-0.0400,0.1394
3801,-1.4317,-10.3118,0.3065,-0.7165,-0.0429,0.1474
3808,-1.3623,-10.2376,0.3041,-0.7088,-0.0402,0.1567
3816,-1.4605,-10.2089,0.1748,-0.6997,-0.0362,0.1692
3824,-1.4198,-10.2376,0.1891,-0.6920,-0.0341,0.1801
3832,-1.3695,-10.1562,0.2107,-0.6845,-0.0328,0.1884
3841,-1.3767,-10.1873,0.0958,-0.6792,-0.0280,0.1996
3849,-1.3982,-10.1251,0.2083,-0.6683,-0.0179,0.2044
3856,-1.3982,-10.0700,0.1939,-0.6632,-0.0131,0.2174
3864,-1.3479,-10.0054,0.2131,-0.6542,-0.0067,0.2217
3872,-1.3671,-10.0006,0.1772,-0.6472,0.0048,0.2257
3880,-1.3527,-10.0413,0.2394,-0.6352,0.0141,0.2297
3889,-1.3001,-10.0054,0.1484,-0.6219,0.0248,0.2316
3896,-1.2258,-9.9671,0.1628,-0.6105,0.0421,0.2316
3904,-1.2929,-9.9311,0.1820,-0.6003,0.0514,0.2246
3912,-1.3312,-9.8952,0.1987,-0.5841,0.0663,0.2185
3920,-1.2857,-9.8761,0.1508,-0.5625,0.0815,0.2118
3929,-1.2570,-9.9455,0.1748,-0.5486,0.0983,0.2028
3937,-1.2522,-9.8162,0.2035,-0.5263,0.1127,0.1940
3944,-1.1827,-9.8258,0.2346,-0.5060,0.1271,0.1828
3952,-1.1851,-9.8066,0.1915,-0.4882,0.1444,0.1695
3960,-1.2282,-9.7540,0.3089,-0.4610,0.1593,0.1575
3969,-1.1995,-9.7133,0.2849,-0.4354,0.1759,0.1423
3977,-1.1995,-9.6438,0.2945,-0.4069,0.1897,0.1250
3984,-1.1756,-9.6319,0.3184,-0.3765,0.2049,0.1119
3992,-1.1636,-9.6295,0.2729,-0.3488,0.2156,0.0925
4000,-1.2115,-9.5696,0.3017,-0.3187,0.2294,0.0783
4008,-1.2163,-9.5864,0.3041,-0.2806,0.2388,0.0621
4017,-1.1947,-9.5217,0.3352,-0.2454,0.2425,0.0498
4024,-1.1923,-9.5313,0.3711,-0.2092,0.2518,0.0341
4032,-1.2019,-9.5241,0.3711,-0.1743,0.2531,0.0203
4040,-1.1612,-9.5074,0.3256,-0.1359,0.2598,0.0077
4048,-1.2043,-9.4786,0.3280,-0.0997,0.2539,-0.0059
4057,-1.2617,-9.4954,0.3543,-0.0621,0.2539,-0.0157
4065,-1.1875,-9.4739,0.3400,-0.0203,0.2443,-0.0250
4072,-1.2234,-9.4739,0.3304,0.0107,0.2385,-0.0290
4080,-1.2067,-9.4619,0.3759,0.0445,0.2300,-0.0293
4088,-1.2570,-9.4236,0.3280,0.0775,0.2177,-0.0325
4097,-1.2594,-9.4691,0.3400,0.1077,0.1998,-0.0333
4105,-1.2474,-9.5098,0.2849,0.1348,0.1871,-0.0282
4112,-1.2809,-9.4523,0.2921,0.1641,0.1700,-0.0293
4120,-1.2665,-9.4619,0.3543,0.1868,0.1514,-0.0234
4128,-1.2857,-9.5170,0.2442,0.2089,0.1311,-0.0208
4136,-1.3001,-9.5074,0.1867,0.2302,0.1042,-0.0147
4145,-1.3192,-9.4810,0.2514,0.2505,0.0863,-0.0093
4153,-1.3120,-9.5864,0.2873,0.2699,0.0610,-0.0080
4160,-1.2641,-9.5624,0.2370,0.2883,0.0381,-0.0035
4168,-1.2953,-9.5505,0.2705,0.3014,0.0141,0.0013
4176,-1.3575,-9.5529,0.1844,0.3163,-0.0104,0.0061
4185,-1.2761,-9.5768,0.2873,0.3312,-0.0325,0.0059
4193,-1.2594,-9.5816,0.2466,0.3459,-0.0597,0.0093
4200,-1.2594,-9.6678,0.1963,0.3595,-0.0829,0.0088
4208,-1.2522,-9.6774,0.1365,0.3709,-0.1047,0.0064
4216,-1.2689,-9.7061,0.2107,0.3829,-0.1292,0.0075
4225,-1.2785,-9.6893,0.2179,0.3981,-0.1514,0.0021
4233,-1.2857,-9.8090,0.2753,0.4130,-0.1681,-0.0043
4241,-1.2857,-9.7707,0.1987,0.4271,-0.1903,-0.0091
4248,-1.2953,-9.8282,0.2490,0.4450,-0.2084,-0.0141
4256,-1.2665,-9.8426,0.1915,0.4610,-0.2249,-0.0218
4264,-1.2785,-9.8569,0.1125,0.4807,-0.2382,-0.0357
4273,-1.1923,-9.9024,0.2227,0.4980,-0.2539,-0.0472
4281,-1.2713,-9.9072,0.1484,0.5164,-0.2638,-0.0565
4288,-1.2785,-9.9527,0.1006,0.5404,-0.2686,-0.0698
4296,-1.2905,-9.9359,0.2227,0.5566,-0.2803,-0.0847
4304,-1.2785,-9.9910,0.1245,0.5761,-0.2907,-0.0962
4313,-1.2498,-10.0054,0.2753,0.5977,-0.2960,-0.1037
4321,-1.3336,-10.0269,0.1963,0.6150,-0.3014,-0.1156
4329,-1.3192,-10.0748,0.1772,0.6352,-0.3038,-0.1282
4336,-1.3288,-10.0820,0.2011,0.6563,-0.3048,-0.1372
4344,-1.3312,-10.1538,0.2131,0.6765,-0.3099,-0.1452
4353,-1.3575,-10.1562,0.2035,0.6936,-0.3118,-0.1545
4361,-1.3384,-10.2304,0.3136,0.7131,-0.3123,-0.1623
4369,-1.3791,-10.1730,0.1125,0.7293,-0.3136,-0.1652
4376,-1.3144,-10.2711,0.1820,0.7488,-0.3179,-0.1668
4384,-1.3791,-10.2831,0.2418,0.7645,-0.3174,-0.1740
4392,-1.3791,-10.3837,0.1772,0.7810,-0.3150,-0.1756
4401,-1.3551,-10.3118,0.1484,0.7965,-0.3174,-0.1769
4409,-1.4365,-10.4172,0.1413,0.8114,-0.3176,-0.1801
4417,-1.4724,-10.3501,0.2514,0.8268,-0.3123,-0.1796
4424,-1.4413,-10.3932,0.1365,0.8367,-0.3128,-0.1777
4432,-1.4413,-10.4148,0.1293,0.8492,-0.3139,-0.1780
4441,-1.4126,-10.4483,0.1030,0.8583,-0.3110,-0.1732
4449,-1.4246,-10.5010,0.0934,0.8668,-0.3070,-0.1700
4457,-1.4150,-10.5034,0.1532,0.8719,-0.3086,-0.1676
4464,-1.4916,-10.4842,0.2322,0.8751,-0.3019,-0.1625
4472,-1.4389,-10.5082,0.1173,0.8799,-0.2968,-0.1612
4481,-1.4365,-10.6039,0.1125,0.8863,-0.2942,-0.1564
4489,-1.4724,-10.5465,0.0215,0.8879,-0.2888,-0.1500
4497,-1.4126,-10.5824,0.0503,0.8855,-0.2830,-0.1487
4505,-1.4293,-10.6183,0.0838,0.8884,-0.2766,-0.1458
4512,-1.4365,-10.5752,0.0024,0.8860,-0.2729,-0.1447
4520,-1.4772,-10.5872,0.0886,0.8844,-0.2670,-0.1423
4529,-1.4222,-10.6087,0.1077,0.8801,-0.2547,-0.1460
4537,-1.4437,-10.6063,0.1149,0.8812,-0.2467,-0.1428
4545,-1.4269,-10.6518,0.0862,0.8775,-0.2372,-0.1463
4552,-1.4222,-10.6590,0.0599,0.8772,-0.2324,-0.1479
4560,-1.3815,-10.6781,0.1365,0.8756,-0.2225,-0.1498
4569,-1.4437,-10.5991,0.0503,0.8711,-0.2100,-0.1572
4577,-1.3791,-10.6015,0.0455,0.8708,-0.2028,-0.1615
4585,-1.3958,-10.6734,0.0790,0.8697,-0.1935,-0.1649
4593,-1.3815,-10.6686,0.0646,0.8633,-0.1836,-0.1708
4600,-1.4293,-10.6231,0.0431,0.8655,-0.1721,-0.1737
4609,-1.4150,-10.6135,0.0694,0.8612,-0.1655,-0.1785
4617,-1.4365,-10.5273,0.0622,0.8548,-0.1583,-0.1831
4625,-1.3886,-10.5369,0.0670,0.8521,-0.1529,-0.1860
4633,-1.3551,-10.5872,0.1077,0.8484,-0.1418,-0.1921
4640,-1.3934,-10.5560,0.0455,0.8439,-0.1354,-0.1927
4648,-1.3958,-10.5177,0.0838,0.8436,-0.1263,-0.1956
4657,-1.4150,-10.4986,0.0311,0.8386,-0.1242,-0.1969
4665,-1.3838,-10.5297,0.0814,0.8362,-0.1218,-0.1953
4673,-1.4341,-10.4866,0.1508,0.8282,-0.1170,-0.1974
4681,-1.4365,-10.4220,0.0239,0.8228,-0.1156,-0.1937
4688,-1.4054,-10.4555,0.0383,0.8146,-0.1146,-0.1932
4697,-1.4341,-10.4148,0.0527,0.8124,-0.1138,-0.1897
4705,-1.4150,-10.3908,0.0742,0.8055,-0.1140,-0.1881
4713,-1.3910,-10.3765,0.1460,0.7965,-0.1127,-0.1852
4721,-1.4365,-10.3262,0.1077,0.7853,-0.1130,-0.1807
4728,-1.3886,-10.3765,0.0958,0.7810,-0.1127,-0.1732
4737,-1.4269,-10.3118,0.0383,0.7674,-0.1207,-0.1676
4745,-1.4365,-10.2855,0.0862,0.7581,-0.1220,-0.1633
4753,-1.4485,-10.1969,-0.0048,0.7464,-0.1279,-0.1535
4761,-1.3384,-10.1969,0.0287,0.7312,-0.1311,-0.1468
4768,-1.4246,-10.2017,0.0383,0.7171,-0.1322,-0.1378
4776,-1.4126,-10.1658,0.0168,0.7011,-0.1396,-0.1284
4785,-1.4413,-10.0963,-0.0192,0.6843,-0.1412,-0.1212
4793,-1.4269,-10.0676,-0.0407,0.6640,-0.1458,-0.1135
4801,-1.3623,-10.0245,0.0383,0.6462,-0.1452,-0.1042
4809,-1.4533,-9.9934,0.0622,0.6257,-0.1532,-0.0978
4816,-1.3503,-10.0533,-0.0072,0.6059,-0.1527,-0.0914
4825,-1.4102,-9.9886,0.0742,0.5844,-0.1580,-0.0829
4833,-1.3791,-9.9144,0.0742,0.5630,-0.1607,-0.0786
4841,-1.3431,-9.8833,-0.0622,0.5393,-0.1628,-0.0749
4849,-1.3216,-9.8881,0.0024,0.5185,-0.1609,-0.0671
4856,-1.3144,-9.8521,0.0048,0.4959,-0.1639,-0.0642
4865,-1.3216,-9.8521,-0.0239,0.4746,-0.1673,-0.0581
4873,-1.3408,-9.8162,-0.0311,0.4514,-0.1647,-0.0565
4881,-1.3575,-9.7755,-0.0048,0.4277,-0.1623,-0.0517
4889,-1.3527,-9.7588,0.0359,0.4032,-0.1649,-0.0533
4897,-1.3312,-9.7205,0.0455,0.3842,-0.1639,-0.0469
4904,-1.2713,-9.7085,0.0024,0.3573,-0.1596,-0.0466
4913,-1.2833,-9.7061,0.0192,0.3320,-0.1548,-0.0453
4921,-1.2689,-9.7061,0.1221,0.3115,-0.1561,-0.0405
4929,-1.2641,-9.6414,-0.0024,0.2875,-0.1506,-0.0360
4937,-1.2785,-9.5648,-0.0192,0.2641,-0.1455,-0.0362
4944,-1.2929,-9.6367,0.0335,0.2438,-0.1410,-0.0381
4953,-1.3096,-9.5529,0.0479,0.2201,-0.1364,-0.0333
4961,-1.3001,-9.5864,0.0359,0.2049,-0.1284,-0.0330
4969,-1.2570,-9.5648,-0.0311,0.1772,-0.1255,-0.0282
4977,-1.2929,-9.5600,-0.0072,0.1506,-0.1194,-0.0195
4985,-1.2594,-9.5361,-0.0383,0.1284,-0.1119,-0.0128
4993,-1.2354,-9.5816,0.0263,0.1045,-0.1050,-0.0045
5001,-1.3264,-9.5265,-0.1365,0.0829,-0.0951,0.0027
5009,-1.3312,-9.5241,0.0096,0.0640,-0.0826,0.0091
5017,-1.3192,-9.4786,0.0096,0.0456,-0.0743,0.0123
5025,-1.3264,-9.5457,0.0168,0.0293,-0.0693,0.0149
5032,-1.2713,-9.5217,0.0742,0.0141,-0.0629,0.0163
5041,-1.2210,-9.5553,0.1006,-0.0051,-0.0506,0.0216
5049,-1.2450,-9.4954,0.0790,-0.0184,-0.0445,0.0261
5057,-1.2977,-9.4810,0.0096,-0.0392,-0.0330,0.0298
5065,-1.3431,-9.5098,0.0790,-0.0565,-0.0187,0.0370
5073,-1.3479,-9.4858,-0.0144,-0.0767,-0.0123,0.0442
5081,-1.3288,-9.5313,0.0000,-0.0922,-0.0005,0.0541
5089,-1.3336,-9.4906,0.0910,-0.1172,0.0144,0.0640
5097,-1.3551,-9.5457,0.0479,-0.1343,0.0229,0.0741
5105,-1.3312,-9.5217,-0.0359,-0.1577,0.0362,0.0834
5113,-1.3360,-9.5529,0.0263,-0.1799,0.0450,0.0938
5121,-1.3072,-9.5720,0.0359,-0.2020,0.0613,0.1034
5129,-1.3048,-9.5265,-0.0287,-0.2252,0.0709,0.1132
5137,-1.3623,-9.5768,0.0455,-0.2489,0.0810,0.1226
5145,-1.2977,-9.6367,-0.0766,-0.2697,0.0935,0.1300
5153,-1.3120,-9.6151,0.0024,-0.2987,0.1045,0.1359
5161,-1.3551,-9.6798,0.0287,-0.3163,0.1162,0.1410
5169,-1.3024,-9.6965,0.0599,-0.3448,0.1271,0.1516
5177,-1.3384,-9.7157,-0.0239,-0.3669,0.1383,0.1540
5185,-1.2881,-9.7659,0.1030,-0.3912,0.1498,0.1572
5193,-1.3120,-9.7564,0.0120,-0.4159,0.1604,0.1609
5201,-1.3479,-9.7444,0.0646,-0.4426,0.1676,0.1647
5209,-1.3838,-9.7396,-0.0551,-0.4642,0.1809,0.1695
5217,-1.2953,-9.8402,0.0551,-0.4860,0.1876,0.1732
5225,-1.3408,-9.8689,0.1006,-0.5084,0.1961,0.1783
5233,-1.3096,-9.9120,0.0383,-0.5324,0.2046,0.1804
5241,-1.3503,-9.9144,0.0670,-0.5505,0.2140,0.1825
5250,-1.3479,-9.9144,0.0359,-0.5686,0.2190,0.1828
5257,-1.3599,-9.9766,0.1101,-0.5814,0.2294,0.1884
5265,-1.3551,-9.9623,0.2059,-0.5998,0.2358,0.1895
5273,-1.3192,-10.0245,0.1341,-0.6123,0.2406,0.1908
5281,-1.3455,-10.0700,0.0503,-0.6241,0.2459,0.1911
5289,-1.3934,-10.0676,0.1293,-0.6347,0.2459,0.1905
5297,-1.3503,-10.0604,0.1413,-0.6422,0.2537,0.1884
5305,-1.3216,-10.1514,0.2035,-0.6542,0.2529,0.1873
5313,-1.3408,-10.1203,0.1532,-0.6638,0.2566,0.1908
5321,-1.3671,-10.1610,0.0575,-0.6742,0.2614,0.1863
5329,-1.3838,-10.2089,0.2394,-0.6824,0.2582,0.1887
5338,-1.4102,-10.2807,0.2514,-0.6907,0.2611,0.1911
5345,-1.3647,-10.2161,0.1676,-0.6987,0.2577,0.1927
5353,-1.3360,-10.2711,0.0934,-0.7053,0.2582,0.1948
5361,-1.4341,-10.2735,0.2394,-0.7149,0.2545,0.1945
5369,-1.3647,-10.3190,0.1915,-0.7226,0.2494,0.1953
5378,-1.4030,-10.3310,0.1341,-0.7272,0.2433,0.1982
5385,-1.4246,-10.3262,0.1317,-0.7360,0.2380,0.2022
5393,-1.3886,-10.3860,0.1556,-0.7389,0.2334,0.2062
5401,-1.4006,-10.3908,0.1987,-0.7482,0.2241,0.2105
5409,-1.4748,-10.3693,0.1245,-0.7573,0.2201,0.2148
5417,-1.4293,-10.4148,0.1796,-0.7674,0.2110,0.2142
5425,-1.4605,-10.3860,0.1796,-0.7719,0.2038,0.2182
5433,-1.4557,-10.4100,0.2442,-0.7797,0.1990,0.2169
5441,-1.4293,-10.5105,0.1413,-0.7885,0.1895,0.2241
5449,-1.3551,-10.4651,0.1963,-0.7967,0.1836,0.2230
5457,-1.4317,-10.5201,0.1437,-0.8042,0.1769,0.2252
5466,-1.4341,-10.5417,0.1125,-0.8170,0.1700,0.2257
5473,-1.4293,-10.4770,0.1676,-0.8228,0.1641,0.2262
5481,-1.3743,-10.5225,0.1556,-0.8311,0.1569,0.2276
5489,-1.4126,-10.5345,0.2227,-0.8375,0.1516,0.2292
5497,-1.3982,-10.5608,0.1724,-0.8460,0.1439,0.2340
5506,-1.3910,-10.5680,0.1987,-0.8543,0.1415,0.2345
5513,-1.3719,-10.5345,0.2274,-0.8585,0.1348,0.2337
5521,-1.4006,-10.5417,0.1772,-0.8663,0.1303,0.2329
5529,-1.4269,-10.5369,0.1293,-0.8687,0.1239,0.2345
5537,-1.4341,-10.5656,0.2059,-0.8727,0.1215,0.2345
5545,-1.4413,-10.5393,0.2394,-0.8724,0.1170,0.2308
5554,-1.3982,-10.5943,0.1700,-0.8743,0.1162,0.2310
5561,-1.3791,-10.5129,0.1125,-0.8727,0.1116,0.2273
5569,-1.3743,-10.5034,0.1939,-0.8732,0.1085,0.2257
5577,-1.4150,-10.5034,0.2155,-0.8713,0.1069,0.2246
5585,-1.3671,-10.4794,0.1700,-0.8641,0.1053,0.2193
5594,-1.3934,-10.5177,0.2131,-0.8591,0.1047,0.2150
5601,-1.4126,-10.5105,0.2227,-0.8521,0.1050,0.2145
5609,-1.4246,-10.4890,0.3232,-0.8447,0.1037,0.2132
5617,-1.3862,-10.4818,0.3472,-0.8330,0.1039,0.2108
5625,-1.3623,-10.4483,0.2658,-0.8228,0.1061,0.2025
5634,-1.3791,-10.4220,0.2634,-0.8135,0.1100,0.2012
5642,-1.3647,-10.4315,0.2059,-0.7983,0.1042,0.1969
5649,-1.3623,-10.3741,0.2059,-0.7850,0.1085,0.1924
5657,-1.3240,-10.3621,0.2346,-0.7759,0.1092,0.1897
5665,-1.3599,-10.3262,0.2969,-0.7589,0.1106,0.1903
5673,-1.3862,-10.2999,0.2634,-0.7416,0.1111,0.1831
5682,-1.3934,-10.2568,0.2586,-0.7274,0.1103,0.1817
5689,-1.3743,-10.3142,0.2298,-0.7157,0.1116,0.1823
5697,-1.3910,-10.2831,0.2394,-0.7019,0.1180,0.1833
5705,-1.2665,-10.2376,0.3089,-0.6891,0.1164,0.1777
5713,-1.3743,-10.1969,0.2729,-0.6694,0.1234,0.1799
5722,-1.3096,-10.1347,0.3017,-0.6536,0.1228,0.1724
5730,-1.3479,-10.1394,0.2418,-0.6379,0.1260,0.1716
5737,-1.3168,-10.1442,0.2322,-0.6217,0.1295,0.1692
5745,-1.2953,-10.1107,0.1915,-0.6086,0.1322,0.1700
5753,-1.2977,-10.1251,0.1700,-0.5905,0.1354,0.1639
5762,-1.3384,-10.0700,0.2227,-0.5745,0.1380,0.1596
5770,-1.3431,-10.0006,0.2442,-0.5580,0.1407,0.1577
5777,-1.2785,-9.9958,0.2251,-0.5444,0.1380,0.1527
5785,-1.2953,-9.9407,0.2705,-0.5244,0.1423,0.1498
5793,-1.3024,-9.9072,0.2466,-0.5087,0.1423,0.1455
5801,-1.2761,-9.9264,0.2059,-0.4935,0.1439,0.1434
5810,-1.3024,-9.8617,0.2658,-0.4751,0.1452,0.1396
5818,-1.2570,-9.8713,0.2897,-0.4644,0.1455,0.1375
5825,-1.3048,-9.8186,0.1915,-0.4426,0.1460,0.1287
5833,-1.2210,-9.8497,0.2203,-0.4279,0.1490,0.1247
5841,-1.2737,-9.7899,0.3112,-0.4112,0.1455,0.1231
5850,-1.3024,-9.7827,0.2322,-0.3962,0.1466,0.1167
5858,-1.2857,-9.7372,0.3376,-0.3770,0.1460,0.1140
5865,-1.2474,-9.7971,0.2274,-0.3579,0.1434,0.1045
5873,-1.2234,-9.7372,0.2394,-0.3379,0.1436,0.0991
5881,-1.2809,-9.6822,0.2849,-0.3190,0.1442,0.0949
5890,-1.2210,-9.6582,0.2969,-0.2990,0.1426,0.0887
5898,-1.2354,-9.6917,0.3256,-0.2803,0.1375,0.0791
5905,-1.3024,-9.6127,0.2610,-0.2561,0.1322,0.0743
5913,-1.2641,-9.6247,0.3400,-0.2377,0.1271,0.0661
5921,-1.2713,-9.6151,0.3208,-0.2124,0.1196,0.0605
5929,-1.2139,-9.6007,0.2394,-0.1908,0.1140,0.0522
5938,-1.2522,-9.5984,0.3232,-0.1655,0.1140,0.0456
5946,-1.2905,-9.6031,0.3304,-0.1380,0.1066,0.0440
5953,-1.1851,-9.5768,0.2873,-0.1175,0.0994,0.0336
5961,-1.2426,-9.5720,0.2849,-0.0933,0.0909,0.0330
5969,-1.2546,-9.5864,0.2849,-0.0650,0.0818,0.0269
5978,-1.2378,-9.5122,0.2322,-0.0416,0.0746,0.0197
5986,-1.2665,-9.6223,0.2753,-0.0189,0.0669,0.0141
5993,-1.2426,-9.5313,0.2442,0.0072,0.0520,0.0101
6001,-1.2043,-9.5385,0.3352,0.0325,0.0450,0.0043
6009,-1.2641,-9.5433,0.2849,0.0594,0.0338,0.0011
6018,-1.2809,-9.5553,0.2610,0.0861,0.0208,-0.0064
6026,-1.2929,-9.5624,0.2346,0.1098,0.0072,-0.0067
6034,-1.1899,-9.5696,0.2682,0.1319,0.0008,-0.0109
6041,-1.2713,-9.5217,0.2921,0.1583,-0.0141,-0.0131
6049,-1.2234,-9.5816,0.2059,0.1852,-0.0218,-0.0216
6057,-1.2067,-9.6367,0.2179,0.2028,-0.0360,-0.0256
6066,-1.2258,-9.5888,0.2825,0.2289,-0.0506,-0.0282
6074,-1.2546,-9.6606,0.1963,0.2491,-0.0634,-0.0328
6081,-1.2761,-9.6343,0.1915,0.2734,-0.0714,-0.0346
6089,-1.2617,-9.6462,0.2921,0.2918,-0.0861,-0.0386
6097,-1.2881,-9.7109,0.2993,0.3160,-0.0959,-0.0426
6106,-1.2330,-9.7133,0.2921,0.3365,-0.1047,-0.0456
6114,-1.2689,-9.6798,0.1317,0.3568,-0.1180,-0.0520
6122,-1.3024,-9.7516,0.2418,0.3757,-0.1268,-0.0560
6129,-1.2115,-9.6750,0.1891,0.3944,-0.1423,-0.0568
6137,-1.2498,-9.7468,0.2562,0.4162,-0.1490,-0.0600
6146,-1.2617,-9.8186,0.2490,0.4365,-0.1572,-0.0661
6154,-1.3623,-9.8282,0.2538,0.4538,-0.1673,-0.0711
6162,-1.3120,-9.8713,0.2155,0.4695,-0.1769,-0.0770
6169,-1.2833,-9.8952,0.1867,0.4844,-0.1807,-0.0797
6177,-1.2641,-9.9192,0.2059,0.5044,-0.1895,-0.0834
6185,-1.2713,-9.9479,0.2227,0.5180,-0.1940,-0.0898
6194,-1.2953,-9.9216,0.1460,0.5319,-0.1996,-0.0962
6202,-1.3096,-9.9431,0.1293,0.5449,-0.2009,-0.0994
6210,-1.3455,-9.9647,0.1245,0.5606,-0.2081,-0.1023
6217,-1.3048,-10.0054,0.1844,0.5708,-0.2094,-0.1092
6225,-1.3001,-10.0892,0.1987,0.5846,-0.2150,-0.1111
6234,-1.3240,-10.0820,0.1341,0.6014,-0.2153,-0.1167
6242,-1.3958,-10.0389,0.0958,0.6118,-0.2148,-0.1194
6250,-1.3288,-10.1131,0.2322,0.6195,-0.2190,-0.1274
6257,-1.3647,-10.1251,0.1867,0.6307,-0.2230,-0.1268
6265,-1.3551,-10.1059,0.1891,0.6448,-0.2214,-0.1303
6274,-1.3096,-10.1849,0.1030,0.6579,-0.2233,-0.1348
6282,-1.2977,-10.2424,0.1748,0.6696,-0.2262,-0.1372
6290,-1.3527,-10.2424,0.1676,0.6808,-0.2286,-0.1410
6298,-1.3360,-10.2783,0.1628,0.6957,-0.2236,-0.1431
6305,-1.3455,-10.2304,0.1077,0.7043,-0.2276,-0.1468
6313,-1.3384,-10.2472,0.0670,0.7163,-0.2254,-0.1492
6322,-1.3431,-10.2735,0.0790,0.7258,-0.2238,-0.1498
6330,-1.4006,-10.3717,0.1628,0.7352,-0.2252,-0.1548
6338,-1.3862,-10.3477,0.1293,0.7437,-0.2265,-0.1556
6345,-1.4246,-10.3549,0.1844,0.7520,-0.2209,-0.1567
6353,-1.3958,-10.3238,0.1221,0.7602,-0.2209,-0.1612
6362,-1.3838,-10.4244,0.1293,0.7711,-0.2204,-0.1617
6370,-1.4030,-10.3956,0.2107,0.7757,-0.2161,-0.1620
6378,-1.4126,-10.4076,0.1293,0.7861,-0.2198,-0.1620
6386,-1.3862,-10.4004,0.1532,0.7914,-0.2198,-0.1625
6393,-1.3599,-10.4411,0.1820,0.7973,-0.2134,-0.1663
6402,-1.3838,-10.4196,0.0742,0.8039,-0.2124,-0.1665
6410,-1.3815,-10.4603,0.1053,0.8119,-0.2126,-0.1660
6418,-1.4246,-10.4746,0.1389,0.8167,-0.2089,-0.1668
6426,-1.4389,-10.4890,0.1748,0.8180,-0.2060,-0.1687
6433,-1.4653,-10.4722,0.1269,0.8244,-0.2046,-0.1689
6441,-1.4269,-10.4579,0.0814,0.8228,-0.2004,-0.1676
6450,-1.4317,-10.4938,0.0862,0.8247,-0.1998,-0.1687
6458,-1.3623,-10.5225,0.1221,0.8255,-0.1966,-0.1689
6466,-1.3934,-10.5345,0.0575,0.8223,-0.1924,-0.1724
6474,-1.4078,-10.4818,0.0766,0.8242,-0.1932,-0.1695
6481,-1.3671,-10.4818,0.0455,0.8231,-0.1889,-0.1711
6490,-1.3791,-10.4938,0.1245,0.8204,-0.1857,-0.1716
6498,-1.4174,-10.4627,0.0192,0.8196,-0.1879,-0.1719
6506,-1.3743,-10.5177,0.0958,0.8143,-0.1823,-0.1716
6514,-1.4557,-10.4914,0.1077,0.8068,-0.1801,-0.1721
6521,-1.4365,-10.4220,0.1053,0.8015,-0.1745,-0.1663
6530,-1.4293,-10.4411,0.0646,0.7935,-0.1748,-0.1687
6538,-1.3384,-10.4028,0.0814,0.7842,-0.1711,-0.1679
6546,-1.4341,-10.4291,0.0958,0.7799,-0.1713,-0.1652
6554,-1.3958,-10.3956,0.0862,0.7706,-0.1716,-0.1620
6561,-1.4557,-10.4507,0.0407,0.7615,-0.1713,-0.1612
6569,-1.4054,-10.4052,0.1724,0.7554,-0.1668,-0.1591
6578,-1.4006,-10.3956,0.1125,0.7488,-0.1697,-0.1593
6586,-1.3767,-10.3430,0.0718,0.7386,-0.1668,-0.1553
6594,-1.4341,-10.2783,0.0575,0.7264,-0.1628,-0.1522
6602,-1.4341,-10.3190,0.0646,0.7144,-0.1620,-0.1508
6609,-1.4126,-10.3501,0.1149,0.7077,-0.1617,-0.1495
6618,-1.3934,-10.2663,0.1077,0.6920,-0.1615,-0.1447
6626,-1.3862,-10.2927,0.0646,0.6816,-0.1585,-0.1412
6634,-1.3551,-10.2520,0.0335,0.6734,-0.1631,-0.1399
6642,-1.3575,-10.1993,-0.0144,0.6622,-0.1623,-0.1383
6649,-1.3719,-10.2256,0.0096,0.6526,-0.1588,-0.1300
6658,-1.4078,-10.1275,0.0000,0.6358,-0.1583,-0.1292
6666,-1.3695,-10.1418,0.1006,0.6249,-0.1588,-0.1250
6674,-1.3958,-10.0700,0.0144,0.6150,-0.1559,-0.1210
6682,-1.3503,-10.0796,0.0551,0.6017,-0.1551,-0.1180
6690,-1.3527,-10.0844,0.0455,0.5883,-0.1569,-0.1127
6697,-1.3886,-10.0556,0.0072,0.5748,-0.1551,-0.1095
6706,-1.3719,-9.9958,0.0455,0.5604,-0.1516,-0.1047
6714,-1.3815,-10.0030,0.1245,0.5481,-0.1492,-0.1013
6722,-1.3623,-9.9647,0.0766,0.5340,-0.1514,-0.0959
6730,-1.3599,-9.9790,0.0024,0.5167,-0.1476,-0.0922
6737,-1.2929,-9.8904,0.0311,0.5020,-0.1404,-0.0879
6746,-1.3719,-9.8450,-0.0551,0.4890,-0.1436,-0.0839
6754,-1.3719,-9.8641,0.0622,0.4716,-0.1380,-0.0802
6762,-1.3623,-9.8402,0.0599,0.4525,-0.1372,-0.0765
6770,-1.3312,-9.8521,-0.0599,0.4370,-0.1330,-0.0690
6778,-1.3120,-9.7564,0.0742,0.4189,-0.1271,-0.0629
6786,-1.3216,-9.8043,0.0479,0.3989,-0.1231,-0.0613
6794,-1.3527,-9.7540,-0.0144,0.3821,-0.1202,-0.0578
6802,-1.3527,-9.7707,0.0670,0.3632,-0.1191,-0.0485
6810,-1.3168,-9.7324,-0.0263,0.3424,-0.1167,-0.0456
6818,-1.3168,-9.7229,-0.0024,0.3262,-0.1100,-0.0416
6825,-1.3240,-9.6845,0.0215,0.3046,-0.1053,-0.0346
6834,-1.2833,-9.6343,0.0718,0.2835,-0.1002,-0.0346
6842,-1.3503,-9.6845,0.0263,0.2638,-0.0967,-0.0304
6850,-1.3096,-9.6462,-0.1652,0.2467,-0.0946,-0.0205
6858,-1.2857,-9.5792,-0.0192,0.2214,-0.0885,-0.0139
6866,-1.2977,-9.6007,-0.0192,0.1956,-0.0821,-0.0077
6874,-1.3288,-9.6558,0.0335,0.1775,-0.0791,0.0027
6882,-1.3240,-9.5936,-0.0383,0.1460,-0.0695,0.0112
6890,-1.2809,-9.6319,0.0694,0.1252,-0.0586,0.0176
6898,-1.3048,-9.5888,0.0646,0.1055,-0.0581,0.0211
6906,-1.3144,-9.5840,-0.0048,0.0823,-0.0493,0.0256
6914,-1.3144,-9.6414,-0.0263,0.0640,-0.0421,0.0306
6922,-1.3001,-9.5553,0.0335,0.0440,-0.0376,0.0328
6930,-1.2833,-9.5624,-0.0144,0.0264,-0.0285,0.0370
6938,-1.3264,-9.5960,0.0072,0.0083,-0.0218,0.0421
6946,-1.2833,-9.5864,0.0263,-0.0131,-0.0125,0.0456
6955,-1.2713,-9.5481,-0.0670,-0.0304,-0.0027,0.0485
6962,-1.3144,-9.6295,0.0479,-0.0498,0.0091,0.0536
6970,-1.3336,-9.5553,-0.0766,-0.0719,0.0155,0.0616
6978,-1.2785,-9.5624,0.0503,-0.0903,0.0250,0.0690
6986,-1.2785,-9.5936,0.0024,-0.1077,0.0314,0.0730
6994,-1.3431,-9.6055,0.0359,-0.1284,0.0408,0.0773
7002,-1.2857,-9.6247,0.0239,-0.1471,0.0528,0.0863
7010,-1.3024,-9.6438,0.0694,-0.1676,0.0616,0.0898
7018,-1.2833,-9.6295,0.0479,-0.1860,0.0674,0.0975
7026,-1.3192,-9.6199,0.0886,-0.2020,0.0727,0.1031
7034,-1.3264,-9.5816,0.0838,-0.2206,0.0869,0.1087
7043,-1.3288,-9.5936,0.0455,-0.2433,0.0949,0.1143
7050,-1.2929,-9.6391,-0.0431,-0.2579,0.0962,0.1239
7058,-1.3216,-9.7109,0.0599,-0.2763,0.1047,0.1244
7066,-1.3288,-9.7229,0.0311,-0.2998,0.1127,0.1271
7074,-1.3934,-9.6893,0.0670,-0.3174,0.1188,0.1332
7083,-1.3001,-9.7444,0.0287,-0.3395,0.1247,0.1378
7090,-1.2953,-9.7348,-0.0120,-0.3605,0.1319,0.1460
7098,-1.3479,-9.7492,0.0096,-0.3805,0.1372,0.1503
7106,-1.3096,-9.7636,0.0431,-0.4002,0.1428,0.1545
7114,-1.3503,-9.8162,0.0144,-0.4221,0.1458,0.1631
7122,-1.3312,-9.7947,-0.0024,-0.4405,0.1529,0.1695
7131,-1.3551,-9.8593,0.0096,-0.4623,0.1583,0.1724
7138,-1.3575,-9.9120,0.0982,-0.4788,0.1623,0.1788
7146,-1.3408,-9.9240,0.1341,-0.4956,0.1671,0.1825
7154,-1.3910,-9.9431,0.0551,-0.5113,0.1697,0.1839
7162,-1.3384,-9.9599,0.0479,-0.5260,0.1735,0.1863
7171,-1.3384,-9.9551,0.0982,-0.5431,0.1777,0.1897
7178,-1.3527,-9.9886,0.0886,-0.5534,0.1772,0.1919
7186,-1.3791,-9.9958,0.1389,-0.5604,0.1804,0.1951
7194,-1.3503,-10.0413,0.1676,-0.5788,0.1817,0.1956
7202,-1.3455,-10.0604,0.1484,-0.5894,0.1847,0.1958
7211,-1.3743,-10.0820,0.1269,-0.5974,0.1911,0.1982
7218,-1.4102,-10.1059,0.1724,-0.6118,0.1887,0.2009
7226,-1.3695,-10.1227,0.0479,-0.6198,0.1927,0.2038
7234,-1.3408,-10.1682,0.0575,-0.6291,0.1929,0.2025
7242,-1.3862,-10.1825,0.1293,-0.6398,0.1956,0.2009
7250,-1.3934,-10.1227,0.1053,-0.6499,0.1972,0.2033
7259,-1.4653,-10.2376,0.1915,-0.6571,0.1974,0.2046
7266,-1.3240,-10.2017,0.1197,-0.6648,0.1948,0.2049
7274,-1.4054,-10.2951,0.1844,-0.6752,0.1943,0.2073
7282,-1.3910,-10.2232,0.1437,-0.6797,0.1929,0.2089
7290,-1.3791,-10.3238,0.1437,-0.6875,0.1951,0.2097
7299,-1.3719,-10.2927,0.1413,-0.6920,0.1921,0.2105
7306,-1.3647,-10.3382,0.2274,-0.6997,0.1884,0.2108
7314,-1.3862,-10.3070,0.2370,-0.7024,0.1913,0.2121
7322,-1.3623,-10.3430,0.1293,-0.7120,0.1860,0.2108
7330,-1.3910,-10.3046,0.1365,-0.7178,0.1873,0.2121
7339,-1.4557,-10.3837,0.1556,-0.7226,0.1812,0.2132
7347,-1.4317,-10.3525,0.1173,-0.7298,0.1793,0.2132
7354,-1.3886,-10.3501,0.2490,-0.7360,0.1796,0.2145
7362,-1.4054,-10.3501,0.1413,-0.7416,0.1748,0.2153
7370,-1.3743,-10.3621,0.1341,-0.7472,0.1729,0.2166
7378,-1.3934,-10.3597,0.2682,-0.7520,0.1713,0.2150
7387,-1.4198,-10.4411,0.1844,-0.7554,0.1713,0.2185
7394,-1.3838,-10.4052,0.1963,-0.7610,0.1665,0.2190
7402,-1.3982,-10.4507,0.1628,-0.7661,0.1612,0.2204
7410,-1.4006,-10.3717,0.1891,-0.7735,0.1580,0.2201
7418,-1.4246,-10.3813,0.2059,-0.7751,0.1567,0.2204
7427,-1.4150,-10.4291,0.2562,-0.7762,0.1506,0.2185
7435,-1.4198,-10.3956,0.1125,-0.7799,0.1466,0.2209
7442,-1.4150,-10.4363,0.2969,-0.7791,0.1476,0.2198
7450,-1.3647,-10.4244,0.1580,-0.7815,0.1444,0.2214
7458,-1.4126,-10.3813,0.2298,-0.7837,0.1418,0.2177
7467,-1.3408,-10.4411,0.2011,-0.7775,0.1410,0.2166
7475,-1.3264,-10.4315,0.2825,-0.7733,0.1335,0.2177
7482,-1.4126,-10.3956,0.2849,-0.7727,0.1343,0.2134
7490,-1.4485,-10.3190,0.2346,-0.7687,0.1327,0.2134
7498,-1.3815,-10.3884,0.1676,-0.7605,0.1324,0.2094
7506,-1.3599,-10.3382,0.3017,-0.7562,0.1290,0.2054
7515,-1.3599,-10.3597,0.3232,-0.7501,0.1266,0.2030
7523,-1.3886,-10.3741,0.2107,-0.7448,0.1260,0.1990
7530,-1.3934,-10.3046,0.2227,-0.7352,0.1223,0.1977
7538,-1.3958,-10.3142,0.2274,-0.7261,0.1210,0.1948
7546,-1.2977,-10.2759,0.2274,-0.7168,0.1226,0.1937
7555,-1.3934,-10.2113,0.1939,-0.7043,0.1223,0.1913
7563,-1.3743,-10.2304,0.2490,-0.6949,0.1255,0.1876
7570,-1.4317,-10.2592,0.2945,-0.6848,0.1220,0.1820
7578,-1.3072,-10.2448,0.2251,-0.6712,0.1202,0.1836
7586,-1.3647,-10.1825,0.2011,-0.6632,0.1194,0.1793
7595,-1.3216,-10.1873,0.2897,-0.6507,0.1210,0.1761
7603,-1.3096,-10.1347,0.2298,-0.6342,0.1196,0.1721
7611,-1.3503,-10.1323,0.2083,-0.6241,0.1202,0.1684
7618,-1.3671,-10.0509,0.2011,-0.6118,0.1204,0.1660
7626,-1.3815,-10.0892,0.2059,-0.5950,0.1196,0.1615
7634,-1.2737,-10.0820,0.2083,-0.5825,0.1231,0.1609
7643,-1.3072,-10.0413,0.2801,-0.5673,0.1204,0.1543
7651,-1.2689,-10.0796,0.1748,-0.5518,0.1196,0.1511
7658,-1.3743,-10.0197,0.2466,-0.5356,0.1210,0.1466
7666,-1.3120,-10.0126,0.2274,-0.5249,0.1188,0.1428
7674,-1.3192,-9.9934,0.2059,-0.5084,0.1140,0.1380
7683,-1.3288,-9.9766,0.2705,-0.4948,0.1175,0.1338
7691,-1.2546,-9.9742,0.2538,-0.4788,0.1175,0.1327
7699,-1.3048,-9.9120,0.2370,-0.4618,0.1154,0.1247
7706,-1.2857,-9.9024,0.2155,-0.4487,0.1135,0.1215
7714,-1.3336,-9.8545,0.1748,-0.4311,0.1130,0.1186
7723,-1.3360,-9.8809,0.2897,-0.4170,0.1103,0.1140
7731,-1.2953,-9.8785,0.2753,-0.3978,0.1124,0.1095
7739,-1.3288,-9.8402,0.2825,-0.3800,0.1066,0.1037
7746,-1.2641,-9.8186,0.2370,-0.3675,0.1055,0.1005
7754,-1.3431,-9.7827,0.2274,-0.3464,0.1045,0.0973
7762,-1.2378,-9.7899,0.2203,-0.3320,0.1021,0.0925
7771,-1.3096,-9.7157,0.2610,-0.3134,0.0991,0.0901
7779,-1.2881,-9.7324,0.2993,-0.2958,0.1013,0.0829
7787,-1.2402,-9.7683,0.2753,-0.2790,0.0957,0.0805
7794,-1.2402,-9.6678,0.2442,-0.2595,0.0941,0.0703
7802,-1.2570,-9.6798,0.2155,-0.2385,0.0893,0.0663
7811,-1.3072,-9.6534,0.2251,-0.2156,0.0869,0.0610
7819,-1.2977,-9.6869,0.3232,-0.2001,0.0826,0.0546
7827,-1.2833,-9.7229,0.2322,-0.1775,0.0757,0.0506
7834,-1.2378,-9.6343,0.2155,-0.1583,0.0719,0.0440
7842,-1.2522,-9.6510,0.2394,-0.1364,0.0695,0.0389
7851,-1.3288,-9.6103,0.2490,-0.1119,0.0640,0.0333
7859,-1.2522,-9.6319,0.2131,-0.0911,0.0626,0.0317
7867,-1.2091,-9.5912,0.2777,-0.0725,0.0544,0.0240
7875,-1.2570,-9.6007,0.3304,-0.0490,0.0469,0.0226
7882,-1.2234,-9.5648,0.2945,-0.0269,0.0421,0.0157
7890,-1.2665,-9.6917,0.2514,-0.0048,0.0346,0.0085
7899,-1.2498,-9.6678,0.2586,0.0160,0.0296,0.0029
7907,-1.2641,-9.5960,0.2682,0.0381,0.0216,-0.0037
7915,-1.2617,-9.5792,0.2251,0.0600,0.0149,-0.0067
7922,-1.2617,-9.6199,0.2849,0.0831,0.0091,-0.0120
7930,-1.2546,-9.5888,0.2131,0.1034,-0.0003,-0.0173
7939,-1.2617,-9.6175,0.1915,0.1279,-0.0069,-0.0216
7947,-1.2641,-9.6127,0.2825,0.1484,-0.0171,-0.0274
7955,-1.3096,-9.5936,0.2370,0.1721,-0.0261,-0.0296
7962,-1.2258,-9.7109,0.2370,0.1940,-0.0314,-0.0325
7970,-1.2689,-9.6319,0.2059,0.2097,-0.0362,-0.0397
7979,-1.3096,-9.6702,0.2251,0.2313,-0.0498,-0.0394
7987,-1.2498,-9.6893,0.2682,0.2539,-0.0573,-0.0466
7995,-1.2929,-9.6798,0.2418,0.2731,-0.0613,-0.0504
8003,-1.2905,-9.7085,0.1748,0.2942,-0.0738,-0.0538
8010,-1.2761,-9.7157,0.2131,0.3128,-0.0831,-0.0589
8018,-1.2881,-9.7468,0.2729,0.3341,-0.0914,-0.0648
8027,-1.2857,-9.7109,0.1844,0.3512,-0.0983,-0.0679
8035,-1.2953,-9.7636,0.1676,0.3680,-0.1055,-0.0727
8043,-1.3264,-9.7875,0.3065,0.3896,-0.1167,-0.0751
8050,-1.2737,-9.8330,0.1891,0.4088,-0.1250,-0.0786
8058,-1.2689,-9.8450,0.2442,0.4229,-0.1343,-0.0818
8067,-1.3240,-9.8593,0.2179,0.4389,-0.1396,-0.0858
8075,-1.3719,-9.8833,0.1844,0.4543,-0.1506,-0.0887
8083,-1.2785,-9.8737,0.2442,0.4716,-0.1540,-0.0951
8091,-1.2953,-9.9479,0.1915,0.4844,-0.1617,-0.0973
8098,-1.2713,-9.9575,0.2059,0.4983,-0.1695,-0.0994
8107,-1.2617,-9.9311,0.1891,0.5127,-0.1751,-0.1023
8115,-1.3168,-9.9575,0.1293,0.5239,-0.1783,-0.1031
8123,-1.3527,-10.0102,0.1844,0.5345,-0.1801,-0.1095
8131,-1.3815,-10.0173,0.2083,0.5446,-0.1831,-0.1124
8138,-1.2809,-10.0102,0.2035,0.5588,-0.1855,-0.1170
8146,-1.3072,-10.1418,0.1389,0.5681,-0.1921,-0.1199
8155,-1.3408,-10.0604,0.2634,0.5766,-0.1916,-0.1250
8163,-1.2977,-10.1251,0.1149,0.5886,-0.1927,-0.1247
8171,-1.3886,-10.1634,0.1413,0.5969,-0.1964,-0.1252
8179,-1.3934,-10.1107,0.2059,0.6067,-0.1993,-0.1284
8186,-1.3886,-10.1131,0.1484,0.6182,-0.1980,-0.1359
8195,-1.2953,-10.1897,0.1484,0.6267,-0.2022,-0.1367
8203,-1.3336,-10.1873,0.1437,0.6366,-0.2014,-0.1378
8211,-1.3719,-10.1825,0.1628,0.6435,-0.2014,-0.1418
8219,-1.3408,-10.2352,0.2035,0.6558,-0.2038,-0.1426
8226,-1.3791,-10.1634,0.1652,0.6624,-0.2052,-0.1503
8235,-1.3695,-10.2232,0.1748,0.6707,-0.2038,-0.1455
8243,-1.3336,-10.2807,0.0886,0.6784,-0.2022,-0.1506
8251,-1.4126,-10.2879,0.1963,0.6867,-0.2014,-0.1492
8259,-1.3910,-10.3118,0.1077,0.6912,-0.2022,-0.1543
8267,-1.3671,-10.3118,0.1437,0.7016,-0.2025,-0.1540
8274,-1.3551,-10.3166,0.2179,0.7048,-0.2017,-0.1567
8283,-1.3671,-10.3406,0.1149,0.7085,-0.1998,-0.1599
8291,-1.3815,-10.3406,0.1341,0.7184,-0.1956,-0.1601
8299,-1.3623,-10.3621,0.1556,0.7264,-0.1966,-0.1585
8307,-1.4413,-10.3717,0.1652,0.7301,-0.1958,-0.1612
8314,-1.4293,-10.3453,0.1628,0.7370,-0.1932,-0.1607
8323,-1.3958,-10.3860,0.1293,0.7394,-0.1908,-0.1617
8331,-1.4533,-10.3406,0.0886,0.7456,-0.1897,-0.1660
8339,-1.3767,-10.3406,0.1197,0.7461,-0.1887,-0.1617
8347,-1.3934,-10.4100,0.1891,0.7493,-0.1852,-0.1649
8355,-1.4198,-10.4124,0.0455,0.7525,-0.1841,-0.1655
8363,-1.3719,-10.4435,0.0766,0.7562,-0.1847,-0.1652
8371,-1.3551,-10.3908,0.1532,0.7528,-0.1793,-0.1652
8379,-1.4102,-10.4076,0.1221,0.7512,-0.1791,-0.1644
8387,-1.4246,-10.4387,0.0982,0.7493,-0.1775,-0.1633
8395,-1.4054,-10.4052,0.0862,0.7488,-0.1719,-0.1633
8402,-1.4078,-10.4722,0.0694,0.7453,-0.1737,-0.1609
8411,-1.3216,-10.3741,0.0934,0.7424,-0.1724,-0.1601
8419,-1.4030,-10.3741,0.0407,0.7405,-0.1673,-0.1588
8427,-1.3623,-10.3525,0.0622,0.7330,-0.1681,-0.1577
8435,-1.4341,-10.3645,0.0503,0.7266,-0.1655,-0.1591
8443,-1.4485,-10.3406,0.0048,0.7181,-0.1628,-0.1548
8451,-1.4030,-10.2951,0.0479,0.7125,-0.1631,-0.1524
8459,-1.4030,-10.3525,0.1053,0.7029,-0.1607,-0.1516
8467,-1.3647,-10.2687,0.1221,0.6960,-0.1599,-0.1487
8475,-1.3695,-10.2711,0.0359,0.6867,-0.1583,-0.1468
8483,-1.4078,-10.1993,0.1484,0.6781,-0.1556,-0.1423
8491,-1.3479,-10.2735,0.1173,0.6696,-0.1551,-0.1394
8499,-1.4293,-10.2807,0.0694,0.6590,-0.1522,-0.1386
8507,-1.3599,-10.2161,0.0599,0.6518,-0.1532,-0.1346
8515,-1.3815,-10.2352,0.0215,0.6398,-0.1508,-0.1362
8523,-1.4054,-10.1514,0.0694,0.6352,-0.1495,-0.1300
8531,-1.4030,-10.1730,0.1341,0.6190,-0.1471,-0.1252
8539,-1.3862,-10.1778,0.0718,0.6070,-0.1460,-0.1244
8547,-1.3767,-10.0987,0.0455,0.5979,-0.1458,-0.1196
8555,-1.3647,-10.0987,0.1053,0.5844,-0.1423,-0.1143
8563,-1.3934,-10.0580,0.0096,0.5740,-0.1423,-0.1138
8571,-1.3431,-10.0509,0.0048,0.5620,-0.1391,-0.1095
8579,-1.3455,-10.0078,0.0383,0.5518,-0.1402,-0.1063
8587,-1.3719,-10.0269,0.0311,0.5391,-0.1362,-0.1018
8595,-1.3527,-10.0102,-0.0287,0.5273,-0.1359,-0.0973
8603,-1.4006,-9.8976,0.0479,0.5135,-0.1364,-0.0938
8611,-1.3647,-9.9838,0.0551,0.5004,-0.1330,-0.0911
8620,-1.3862,-9.9527,0.0407,0.4906,-0.1298,-0.0847
8627,-1.3623,-9.9168,0.0958,0.4754,-0.1279,-0.0826
8635,-1.3527,-9.8857,0.0311,0.4620,-0.1260,-0.0786
8643,-1.3671,-9.9216,0.0718,0.4506,-0.1236,-0.0770
8651,-1.2929,-9.8665,0.0575,0.4330,-0.1167,-0.0741
8659,-1.3623,-9.8282,0.0622,0.4194,-0.1154,-0.0661
8667,-1.3743,-9.8258,0.0455,0.4066,-0.1159,-0.0637
8675,-1.3862,-9.8138,0.0479,0.3922,-0.1138,-0.0584
8683,-1.2833,-9.7779,0.0694,0.3736,-0.1079,-0.0536
8691,-1.3024,-9.8090,0.0599,0.3557,-0.1042,-0.0482
8699,-1.3695,-9.7205,0.0120,0.3413,-0.1029,-0.0400
8707,-1.3599,-9.7899,0.0503,0.3200,-0.0986,-0.0402
8715,-1.3743,-9.7540,0.0527,0.3086,-0.0946,-0.0341
8723,-1.3168,-9.7133,-0.0838,0.2856,-0.0903,-0.0282
8731,-1.3264,-9.6774,0.0192,0.2697,-0.0879,-0.0256
8739,-1.3264,-9.6965,0.0072,0.2550,-0.0805,-0.0221
8748,-1.3192,-9.6438,0.0287,0.2337,-0.0778,-0.0125
8755,-1.3288,-9.6510,0.0000,0.2110,-0.0797,-0.0045
8763,-1.3431,-9.6534,-0.0096,0.1945,-0.0698,0.0043
8771,-1.3599,-9.6606,-0.0718,0.1724,-0.0671,0.0104
8779,-1.3671,-9.6127,0.0503,0.1508,-0.0568,0.0173
8787,-1.3168,-9.6031,0.0742,0.1324,-0.0538,0.0224
8795,-1.3048,-9.6343,0.0599,0.1092,-0.0477,0.0274
8803,-1.2522,-9.6343,0.0599,0.0893,-0.0426,0.0333
8811,-1.3288,-9.5912,0.0263,0.0695,-0.0381,0.0400
8819,-1.2953,-9.5768,-0.0192,0.0512,-0.0264,0.0384
8827,-1.3455,-9.6367,0.0455,0.0344,-0.0226,0.0432
8836,-1.3408,-9.6031,0.0096,0.0160,-0.0184,0.0496
8843,-1.3431,-9.6223,0.0263,-0.0045,-0.0093,0.0544
8851,-1.3312,-9.5768,0.0503,-0.0211,-0.0051,0.0592
8859,-1.3408,-9.6175,0.0120,-0.0408,0.0019,0.0634
8867,-1.3072,-9.6031,0.0168,-0.0594,0.0107,0.0703
8876,-1.3168,-9.6151,-0.0120,-0.0733,0.0125,0.0706
8883,-1.2881,-9.6055,0.0694,-0.0941,0.0224,0.0770
8891,-1.3240,-9.5960,0.0790,-0.1111,0.0293,0.0831
8899,-1.2977,-9.6869,0.0646,-0.1314,0.0365,0.0890
8907,-1.2761,-9.6438,-0.0192,-0.1466,0.0434,0.0927
8915,-1.3408,-9.6510,0.0742,-0.1649,0.0514,0.1023
8924,-1.3240,-9.7037,0.1293,-0.1828,0.0560,0.1058
8931,-1.2881,-9.6869,0.0431,-0.2004,0.0613,0.1108
8939,-1.3431,-9.6678,0.0622,-0.2217,0.0701,0.1162
8947,-1.3431,-9.6630,0.0838,-0.2334,0.0778,0.1186
8955,-1.3072,-9.6798,0.1030,-0.2534,0.0847,0.1247
8964,-1.2737,-9.7372,0.0383,-0.2689,0.0901,0.1279
8971,-1.3072,-9.6917,0.0215,-0.2899,0.0962,0.1356
8979,-1.3120,-9.7468,0.0814,-0.3046,0.1045,0.1412
8987,-1.3072,-9.7516,0.0168,-0.3267,0.1106,0.1426
8995,-1.3408,-9.7803,0.0024,-0.3403,0.1204,0.1476
9004,-1.3048,-9.7875,0.0383,-0.3611,0.1212,0.1527
9012,-1.3791,-9.7516,0.0072,-0.3754,0.1298,0.1591
9019,-1.3216,-9.8904,0.0359,-0.3973,0.1364,0.1665
9027,-1.3336,-9.8497,0.1221,-0.4104,0.1415,0.1684
9035,-1.3551,-9.8737,0.0168,-0.4274,0.1482,0.1729
9043,-1.3575,-9.8785,0.0024,-0.4445,0.1506,0.1751
9052,-1.3623,-9.9024,0.0527,-0.4602,0.1564,0.1785
9059,-1.3455,-9.9359,0.1484,-0.4722,0.1625,0.1823
9067,-1.3168,-9.9264,0.0168,-0.4839,0.1692,0.1873
9075,-1.3958,-10.0149,0.1125,-0.4970,0.1692,0.1911
9083,-1.3575,-9.9503,0.1604,-0.5084,0.1724,0.1903
9092,-1.3695,-10.0748,0.1149,-0.5196,0.1823,0.1927
9100,-1.3168,-10.0126,0.0982,-0.5271,0.1836,0.1911
9107,-1.3288,-10.0149,0.1532,-0.5409,0.1839,0.1940
9115,-1.3312,-10.0772,0.0694,-0.5502,0.1895,0.1964
9123,-1.4365,-10.0652,0.1508,-0.5598,0.1881,0.1988
9132,-1.4150,-10.0940,0.1173,-0.5692,0.1932,0.1982
9140,-1.3120,-10.1275,0.1293,-0.5764,0.1932,0.1961
9147,-1.3719,-10.1323,0.1173,-0.5854,0.1924,0.1985
9155,-1.3791,-10.1682,0.1604,-0.5934,0.1943,0.2030
9163,-1.3599,-10.1634,0.1365,-0.6006,0.1921,0.1996
9171,-1.3264,-10.2089,0.1101,-0.6094,0.1940,0.2022
9180,-1.3623,-10.1730,0.1891,-0.6142,0.1937,0.2033
9188,-1.4054,-10.2424,0.1628,-0.6249,0.1932,0.2049
9195,-1.4174,-10.2496,0.1939,-0.6283,0.1884,0.2030
9203,-1.3623,-10.1945,0.0646,-0.6350,0.1908,0.2022
9211,-1.3838,-10.2711,0.1341,-0.6406,0.1855,0.2025
9220,-1.3527,-10.2639,0.1748,-0.6480,0.1812,0.2060
9228,-1.4485,-10.2807,0.2274,-0.6507,0.1801,0.2057
9235,-1.4126,-10.1945,0.0910,-0.6582,0.1764,0.2049
9243,-1.3384,-10.2951,0.0742,-0.6635,0.1743,0.2046
9251,-1.3982,-10.2711,0.1891,-0.6707,0.1711,0.2057
9260,-1.3527,-10.3645,0.1604,-0.6768,0.1703,0.2076
9268,-1.4054,-10.2975,0.1891,-0.6805,0.1639,0.2060
9276,-1.4078,-10.3310,0.1245,-0.6901,0.1599,0.2084
9283,-1.3455,-10.2927,0.2251,-0.6915,0.1596,0.2113
9291,-1.3623,-10.3908,0.1963,-0.6976,0.1522,0.2105
9299,-1.3934,-10.3932,0.1772,-0.7008,0.1506,0.2078
9308,-1.3838,-10.3334,0.1820,-0.7040,0.1444,0.2081
9316,-1.4317,-10.3310,0.1724,-0.7085,0.1407,0.2078
9323,-1.4509,-10.3094,0.2921,-0.7107,0.1391,0.2089
9331,-1.4126,-10.3022,0.1556,-0.7133,0.1303,0.2113
9339,-1.3575,-10.3142,0.2442,-0.7109,0.1292,0.2046
9348,-1.3719,-10.2783,0.2107,-0.7117,0.1271,0.2070
9356,-1.3527,-10.3310,0.2059,-0.7099,0.1234,0.2065
9363,-1.3743,-10.3070,0.2849,-0.7093,0.1183,0.2044
9371,-1.3360,-10.2975,0.1221,-0.7099,0.1146,0.2038
9379,-1.3024,-10.2975,0.1556,-0.7051,0.1135,0.2049
9388,-1.4102,-10.3022,0.2562,-0.6987,0.1090,0.1990
9396,-1.3862,-10.3549,0.1652,-0.6949,0.1085,0.1961
9404,-1.3886,-10.3477,0.0934,-0.6968,0.1090,0.1972
9411,-1.3599,-10.2831,0.2107,-0.6856,0.1058,0.1927
9419,-1.3479,-10.2639,0.2155,-0.6808,0.1023,0.1927
9427,-1.3767,-10.2807,0.2945,-0.6723,0.1029,0.1876
9436,-1.3551,-10.2400,0.2203,-0.6656,0.1005,0.1892
9444,-1.3767,-10.2376,0.2346,-0.6560,0.0978,0.1863
9451,-1.3647,-10.2089,0.2586,-0.6502,0.0989,0.1807
9459,-1.4078,-10.1418,0.2394,-0.6400,0.0967,0.1783
9467,-1.3144,-10.2280,0.2298,-0.6299,0.0957,0.1740
9476,-1.3216,-10.2065,0.2442,-0.6187,0.1015,0.1711
9484,-1.3719,-10.1442,0.1700,-0.6078,0.0983,0.1703
9492,-1.3910,-10.1155,0.3184,-0.5990,0.0989,0.1679
9499,-1.3288,-10.1706,0.1532,-0.5868,0.0999,0.1631
9507,-1.3288,-10.1347,0.2251,-0.5740,0.0965,0.1575
9516,-1.3336,-10.1490,0.2059,-0.5628,0.0981,0.1567
9524,-1.2929,-10.0916,0.2801,-0.5481,0.0954,0.1529
9532,-1.3431,-10.0293,0.2011,-0.5332,0.1061,0.1487
9539,-1.3192,-10.0006,0.1796,-0.5233,0.1037,0.1458
9547,-1.3503,-9.9647,0.2538,-0.5060,0.0994,0.1431
9555,-1.3144,-10.0149,0.1556,-0.4951,0.1029,0.1394
9564,-1.3815,-9.9575,0.2586,-0.4826,0.1007,0.1351
9572,-1.2833,-10.0126,0.1844,-0.4671,0.1029,0.1276
9580,-1.3001,-9.9216,0.1939,-0.4557,0.1092,0.1252
9587,-1.2498,-9.9407,0.2514,-0.4426,0.1061,0.1215
9595,-1.2785,-9.9359,0.3112,-0.4277,0.1087,0.1164
9604,-1.2689,-9.9311,0.1676,-0.4130,0.1085,0.1124
9612,-1.2905,-9.8833,0.2083,-0.3970,0.1090,0.1095
9620,-1.3408,-9.8593,0.2658,-0.3810,0.1058,0.1055
9627,-1.2977,-9.8354,0.2825,-0.3656,0.1045,0.1018
9635,-1.3192,-9.8378,0.1987,-0.3523,0.1063,0.0973
9644,-1.2977,-9.8162,0.1532,-0.3344,0.1042,0.0885
9652,-1.2498,-9.7516,0.1963,-0.3168,0.1042,0.0839
9660,-1.3024,-9.7588,0.1915,-0.3040,0.0991,0.0810
9668,-1.2809,-9.8210,0.2514,-0.2854,0.1013,0.0794
9675,-1.2881,-9.7540,0.2298,-0.2689,0.1005,0.0727
9683,-1.3240,-9.7540,0.3041,-0.2523,0.0954,0.0658
9692,-1.3288,-9.7324,0.1820,-0.2358,0.0959,0.0626
9700,-1.3096,-9.7324,0.1844,-0.2190,0.0909,0.0594
9708,-1.2498,-9.7037,0.1915,-0.2012,0.0890,0.0533
9715,-1.2761,-9.6869,0.2610,-0.1831,0.0813,0.0482
9723,-1.3001,-9.6941,0.2394,-0.1639,0.0794,0.0445
9732,-1.2617,-9.6510,0.3639,-0.1458,0.0770,0.0402
9740,-1.2977,-9.6845,0.3208,-0.1274,0.0746,0.0328
9748,-1.2570,-9.6798,0.2873,-0.1085,0.0677,0.0285
9756,-1.2378,-9.6989,0.2466,-0.0861,0.0624,0.0253
9763,-1.2522,-9.6199,0.2179,-0.0658,0.0536,0.0213
9772,-1.2761,-9.5912,0.2274,-0.0493,0.0525,0.0144
9780,-1.2857,-9.6510,0.3041,-0.0290,0.0466,0.0099
9788,-1.2450,-9.6295,0.2993,-0.0040,0.0384,0.0043
9796,-1.2665,-9.6606,0.2179,0.0077,0.0354,0.0013
9803,-1.2833,-9.6774,0.2035,0.0285,0.0274,-0.0043
9811,-1.2330,-9.6223,0.2993,0.0488,0.0184,-0.0091
9820,-1.2905,-9.6630,0.2179,0.0722,0.0104,-0.0157
9828,-1.2115,-9.6295,0.1915,0.0906,-0.0003,-0.0173
9836,-1.3024,-9.6271,0.1844,0.1108,-0.0021,-0.0256
9844,-1.2522,-9.6486,0.2634,0.1308,-0.0141,-0.0274
9851,-1.2665,-9.6678,0.2514,0.1474,-0.0226,-0.0330
9860,-1.2402,-9.7540,0.2586,0.1676,-0.0314,-0.0373
9868,-1.2833,-9.6798,0.2538,0.1879,-0.0418,-0.0392
9876,-1.2665,-9.6510,0.2203,0.2062,-0.0480,-0.0445
9884,-1.2953,-9.7061,0.1820,0.2222,-0.0589,-0.0509
9891,-1.2043,-9.6319,0.2610,0.2398,-0.0645,-0.0554
9900,-1.3216,-9.7133,0.1820,0.2606,-0.0727,-0.0570
9908,-1.2881,-9.7875,0.2274,0.2758,-0.0810,-0.0637
9916,-1.2833,-9.7205,0.1987,0.2928,-0.0906,-0.0663
9924,-1.2546,-9.7779,0.2346,0.3102,-0.1002,-0.0711
9932,-1.2881,-9.7683,0.2251,0.3315,-0.1045,-0.0738
9939,-1.2977,-9.7683,0.1915,0.3459,-0.1135,-0.0773
9948,-1.2905,-9.7683,0.2251,0.3659,-0.1210,-0.0845
9956,-1.3288,-9.8402,0.1460,0.3826,-0.1295,-0.0863
9964,-1.2809,-9.8234,0.1269,0.3952,-0.1359,-0.0893
9972,-1.3192,-9.8330,0.1796,0.4128,-0.1447,-0.0933
9979,-1.2306,-9.8928,0.1676,0.4242,-0.1487,-0.0935
9988,-1.3024,-9.8904,0.2322,0.4381,-0.1527,-0.0991
9996,-1.3024,-9.9192,0.1580,0.4514,-0.1617,-0.0997
10004,-1.3144,-9.9407,0.1652,0.4612,-0.1660,-0.1005
10012,-1.2785,-9.9431,0.2298,0.4727,-0.1697,-0.1053
10020,-1.2905,-9.9024,0.1987,0.4850,-0.1756,-0.1103
10028,-1.2953,-9.9264,0.0982,0.4932,-0.1777,-0.1108
10036,-1.3551,-10.0054,0.1652,0.5041,-0.1785,-0.1151
10044,-1.3791,-10.0149,0.1724,0.5169,-0.1847,-0.1159
10052,-1.3647,-10.0317,0.1532,0.5265,-0.1863,-0.1202
10060,-1.3527,-10.0030,0.1125,0.5361,-0.1828,-0.1226
10067,-1.3168,-10.0963,0.1460,0.5454,-0.1876,-0.1242
10076,-1.3264,-10.0652,0.1006,0.5545,-0.1892,-0.1247
10084,-1.3958,-10.1347,0.2251,0.5620,-0.1892,-0.1287
10092,-1.3431,-10.0844,0.1748,0.5732,-0.1892,-0.1295
10100,-1.3575,-10.1275,0.0838,0.5782,-0.1905,-0.1303
10107,-1.3360,-10.1538,0.1173,0.5913,-0.1884,-0.1340
10116,-1.3647,-10.1442,0.1580,0.5953,-0.1855,-0.1372
10124,-1.4054,-10.1730,0.0958,0.6054,-0.1865,-0.1394
10132,-1.3719,-10.2592,0.1580,0.6115,-0.1857,-0.1415
10140,-1.3695,-10.2017,0.1365,0.6185,-0.1833,-0.1426
10148,-1.4102,-10.2400,0.1891,0.6246,-0.1815,-0.1450
10156,-1.3719,-10.1778,0.1053,0.6334,-0.1807,-0.1452
10164,-1.3767,-10.2232,0.1413,0.6371,-0.1740,-0.1522
10172,-1.3408,-10.2807,0.1389,0.6451,-0.1721,-0.1498
10180,-1.3647,-10.2568,0.1772,0.6523,-0.1748,-0.1519
10188,-1.3934,-10.2975,0.1149,0.6531,-0.1703,-0.1532
10195,-1.3719,-10.2185,0.1700,0.6614,-0.1676,-0.1540
10204,-1.3503,-10.2592,0.1556,0.6646,-0.1668,-0.1559
10212,-1.4174,-10.2280,0.1006,0.6718,-0.1607,-0.1545
10220,-1.3599,-10.2424,0.2035,0.6752,-0.1633,-0.1567
10228,-1.4365,-10.3166,0.1508,0.6803,-0.1628,-0.1545
10236,-1.4030,-10.2927,0.1197,0.6813,-0.1639,-0.1564
10244,-1.3815,-10.2783,0.1460,0.6880,-0.1604,-0.1561
10252,-1.3599,-10.3860,0.1221,0.6872,-0.1556,-0.1556
10260,-1.3599,-10.3094,0.0982,0.6901,-0.1575,-0.1548
10268,-1.4030,-10.3046,0.0958,0.6917,-0.1506,-0.1556
10276,-1.4102,-10.2999,0.1987,0.6907,-0.1524,-0.1535
10284,-1.3838,-10.3262,0.1101,0.6893,-0.1511,-0.1511
10292,-1.3767,-10.2496,0.0886,0.6861,-0.1495,-0.1535
10300,-1.4437,-10.2520,0.0694,0.6837,-0.1484,-0.1522
10308,-1.4461,-10.3214,0.1053,0.6811,-0.1455,-0.1508
10316,-1.4126,-10.3310,0.0599,0.6771,-0.1468,-0.1471
10324,-1.4198,-10.3118,0.0575,0.6704,-0.1458,-0.1468
10332,-1.3934,-10.2304,0.0694,0.6664,-0.1463,-0.1442
10340,-1.4269,-10.2903,0.0982,0.6616,-0.1415,-0.1415
10348,-1.3431,-10.2041,0.1030,0.6547,-0.1444,-0.1391
10356,-1.4581,-10.2424,-0.0215,0.6502,-0.1442,-0.1370
10364,-1.4222,-10.1754,0.0958,0.6432,-0.1394,-0.1319
10372,-1.3815,-10.2568,0.0551,0.6355,-0.1415,-0.1303
10380,-1.3384,-10.1801,0.1173,0.6262,-0.1423,-0.1290
10388,-1.3815,-10.1993,0.1149,0.6177,-0.1436,-0.1266
10396,-1.4102,-10.1658,0.0120,0.6094,-0.1399,-0.1239
10404,-1.3695,-10.1586,-0.0431,0.5995,-0.1407,-0.1215
10413,-1.3886,-10.0892,0.0670,0.5926,-0.1396,-0.1178
10420,-1.3767,-10.1227,0.0958,0.5774,-0.1439,-0.1135
10428,-1.3695,-10.0628,0.0455,0.5692,-0.1394,-0.1111
10436,-1.3479,-10.1083,0.1030,0.5590,-0.1415,-0.1071
10444,-1.3982,-10.0940,0.0144,0.5494,-0.1378,-0.1055
10452,-1.4006,-10.0748,-0.0096,0.5396,-0.1394,-0.1031
10460,-1.4174,-9.9958,0.0670,0.5268,-0.1354,-0.1010
10468,-1.3982,-10.0149,0.1341,0.5193,-0.1346,-0.0959
10476,-1.3551,-10.0317,0.0431,0.5049,-0.1332,-0.0938
10484,-1.3623,-9.9790,0.1532,0.4943,-0.1338,-0.0890
10492,-1.3575,-9.9575,0.1197,0.4860,-0.1327,-0.0845
10501,-1.3695,-9.9288,0.1030,0.4732,-0.1287,-0.0847
10508,-1.3503,-9.9503,0.0311,0.4599,-0.1274,-0.0810
10516,-1.3168,-10.0078,0.0766,0.4471,-0.1274,-0.0730
10524,-1.3623,-9.9335,0.0479,0.4354,-0.1223,-0.0735
10532,-1.3120,-9.9192,0.0239,0.4234,-0.1180,-0.0698
10541,-1.3431,-9.8737,0.0910,0.4120,-0.1172,-0.0685
10548,-1.3551,-9.8809,0.0670,0.3954,-0.1162,-0.0597
10556,-1.3838,-9.8545,0.0024,0.3858,-0.1100,-0.0546
10564,-1.3408,-9.8474,0.0072,0.3738,-0.1061,-0.0512
10572,-1.3527,-9.7971,-0.0239,0.3560,-0.1045,-0.0480
10580,-1.3312,-9.8521,-0.0215,0.3427,-0.1026,-0.0413
10589,-1.3527,-9.7995,0.0646,0.3283,-0.0997,-0.0378
10596,-1.3360,-9.7923,0.0455,0.3155,-0.0959,-0.0357
10604,-1.2905,-9.7444,0.0862,0.2984,-0.0914,-0.0288
10612,-1.3240,-9.8043,0.1484,0.2793,-0.0861,-0.0242
10620,-1.3455,-9.7827,-0.0120,0.2657,-0.0810,-0.0189
10629,-1.2665,-9.7468,0.0120,0.2470,-0.0781,-0.0136
10636,-1.3264,-9.6750,0.0239,0.2321,-0.0725,-0.0112
10644,-1.3479,-9.7037,0.0168,0.2214,-0.0669,-0.0040
10652,-1.3192,-9.7252,0.0072,0.2004,-0.0658,0.0008
10660,-1.3216,-9.7420,-0.0790,0.1817,-0.0597,0.0091
10669,-1.3312,-9.6798,0.0287,0.1633,-0.0573,0.0168
10676,-1.3910,-9.6774,0.0527,0.1444,-0.0536,0.0229
10684,-1.3599,-9.6941,-0.0192,0.1260,-0.0448,0.0288
10692,-1.2857,-9.6151,0.0958,0.1042,-0.0402,0.0362
10700,-1.2809,-9.7133,-0.0575,0.0898,-0.0365,0.0421
10708,-1.3216,-9.6151,0.0646,0.0682,-0.0298,0.0448
10717,-1.3288,-9.6965,0.1245,0.0525,-0.0240,0.0504
10724,-1.2857,-9.6127,0.0287,0.0362,-0.0211,0.0528
10732,-1.3312,-9.6391,0.0096,0.0200,-0.0133,0.0544
10740,-1.2953,-9.6079,-0.0048,0.0019,-0.0045,0.0642
10748,-1.3048,-9.6391,-0.0359,-0.0099,-0.0008,0.0640
10757,-1.2761,-9.6582,0.0551,-0.0320,0.0059,0.0701
10764,-1.3168,-9.6295,0.0958,-0.0485,0.0136,0.0757
10772,-1.3024,-9.6893,0.0527,-0.0693,0.0200,0.0805
10780,-1.3144,-9.6391,0.0503,-0.0842,0.0245,0.0837
10788,-1.3001,-9.6822,-0.0215,-0.0997,0.0349,0.0882
10797,-1.2785,-9.6654,-0.0263,-0.1146,0.0386,0.0954
10805,-1.2881,-9.7037,0.0024,-0.1324,0.0472,0.0981
10812,-1.3360,-9.7013,0.0263,-0.1463,0.0498,0.1031
10820,-1.3551,-9.6702,-0.0239,-0.1639,0.0608,0.1074
10828,-1.4126,-9.6845,0.0527,-0.1809,0.0701,0.1124
10836,-1.2953,-9.6702,0.1125,-0.1935,0.0735,0.1132
10845,-1.3144,-9.7540,0.0479,-0.2126,0.0807,0.1183
10852,-1.3408,-9.7348,0.0503,-0.2254,0.0823,0.1215
10860,-1.3575,-9.6965,0.0766,-0.2438,0.0911,0.1279
10868,-1.3168,-9.7229,0.0359,-0.2609,0.0973,0.1314
10876,-1.3360,-9.7468,0.0958,-0.2766,0.1031,0.1319
10885,-1.2881,-9.7085,0.1125,-0.2918,0.1095,0.1394
10893,-1.3096,-9.7875,0.0718,-0.3104,0.1130,0.1436
10900,-1.3264,-9.8426,0.0670,-0.3269,0.1194,0.1463
10908,-1.3695,-9.8497,0.0790,-0.3440,0.1255,0.1540
10916,-1.3838,-9.8521,0.0814,-0.3600,0.1282,0.1583
10925,-1.3360,-9.7851,0.1389,-0.3765,0.1346,0.1628
10933,-1.3384,-9.7875,0.0479,-0.3920,0.1375,0.1676
10940,-1.3503,-9.8282,0.0646,-0.4072,0.1402,0.1681
10948,-1.3503,-9.8833,0.1437,-0.4162,0.1434,0.1753
10956,-1.3862,-9.9383,0.0814,-0.4303,0.1492,0.1767
10964,-1.3886,-9.8904,0.0814,-0.4423,0.1508,0.1799
10973,-1.3216,-9.9503,0.0814,-0.4565,0.1540,0.1823
10981,-1.3431,-10.0149,0.1221,-0.4647,0.1527,0.1844
10988,-1.3312,-9.9862,0.0622,-0.4724,0.1543,0.1839
10996,-1.2977,-9.9934,0.0670,-0.4860,0.1572,0.1868
11004,-1.3575,-9.9479,0.1700,-0.4927,0.1604,0.1895
11013,-1.3791,-10.0556,0.1293,-0.5009,0.1617,0.1897
11021,-1.3455,-9.9575,0.1293,-0.5095,0.1609,0.1889
11028,-1.4078,-10.0700,0.1437,-0.5188,0.1591,0.1924
11036,-1.3048,-10.1011,0.2011,-0.5279,0.1636,0.1943
11044,-1.3719,-10.1035,0.1437,-0.5396,0.1599,0.1953
11053,-1.3934,-10.1586,0.0862,-0.5428,0.1636,0.1943
11061,-1.3719,-10.1179,0.1772,-0.5510,0.1612,0.1964
11069,-1.3384,-10.0820,0.0982,-0.5598,0.1604,0.1940
11076,-1.3312,-10.1370,0.1700,-0.5678,0.1599,0.1977
11084,-1.3216,-10.0987,0.2538,-0.5724,0.1580,0.1990
11092,-1.3862,-10.1634,0.1317,-0.5785,0.1585,0.2004
11101,-1.3838,-10.1706,0.1317,-0.5857,0.1548,0.1985
11109,-1.4269,-10.1466,0.0694,-0.5899,0.1522,0.1980
11116,-1.3982,-10.1945,0.2346,-0.5961,0.1519,0.1974
11124,-1.3336,-10.1347,0.1508,-0.5987,0.1519,0.1993
11132,-1.3838,-10.2161,0.1413,-0.6081,0.1482,0.1993
11141,-1.4174,-10.2256,0.2538,-0.6113,0.1484,0.2001
11149,-1.4317,-10.2185,0.1221,-0.6161,0.1482,0.1980
11157,-1.3791,-10.1801,0.1963,-0.6198,0.1410,0.1974
11164,-1.3719,-10.2137,0.1293,-0.6249,0.1388,0.2004
11172,-1.3503,-10.2280,0.2179,-0.6278,0.1399,0.1980
11181,-1.4222,-10.2568,0.1317,-0.6336,0.1359,0.1990
11189,-1.3791,-10.2831,0.1987,-0.6374,0.1332,0.2009
11197,-1.4605,-10.2208,0.2251,-0.6427,0.1343,0.1993
11204,-1.3551,-10.3214,0.1676,-0.6432,0.1311,0.1985
11212,-1.3719,-10.2663,0.1508,-0.6443,0.1316,0.2009
11220,-1.3599,-10.2975,0.1604,-0.6486,0.1263,0.2014
11229,-1.3671,-10.2783,0.2083,-0.6536,0.1263,0.1996
11237,-1.3791,-10.2448,0.1652,-0.6502,0.1223,0.1961
11245,-1.4054,-10.2903,0.2586,-0.6520,0.1204,0.1980
11252,-1.3503,-10.2975,0.1413,-0.6515,0.1178,0.1958
11260,-1.3695,-10.2759,0.1987,-0.6462,0.1194,0.1940
11269,-1.4413,-10.2687,0.1963,-0.6467,0.1162,0.1932
11277,-1.3862,-10.2544,0.2514,-0.6454,0.1151,0.1913
11285,-1.3623,-10.2232,0.2849,-0.6371,0.1135,0.1897
11292,-1.3479,-10.2232,0.2011,-0.6366,0.1090,0.1900
11300,-1.3096,-10.1370,0.1844,-0.6352,0.1111,0.1844
11309,-1.3408,-10.2137,0.2227,-0.6267,0.1074,0.1799
11317,-1.3743,-10.1825,0.1317,-0.6238,0.1066,0.1796
11325,-1.3455,-10.1538,0.1915,-0.6150,0.1055,0.1775
11333,-1.4222,-10.1706,0.1748,-0.6070,0.1058,0.1769
11340,-1.3934,-10.2208,0.1676,-0.5974,0.1042,0.1729
11348,-1.3599,-10.1730,0.2538,-0.5902,0.1063,0.1735
11357,-1.3695,-10.1514,0.2418,-0.5844,0.1045,0.1665
11365,-1.3192,-10.1466,0.2466,-0.5732,0.1034,0.1663
11373,-1.3360,-10.1155,0.1700,-0.5654,0.1037,0.1615
11380,-1.3767,-10.1155,0.1748,-0.5545,0.1010,0.1588
11388,-1.3743,-10.0963,0.2322,-0.5449,0.1042,0.1553
11397,-1.2833,-10.0676,0.1437,-0.5335,0.1023,0.1529
11405,-1.3575,-10.0149,0.2179,-0.5225,0.1031,0.1487
11413,-1.3240,-10.0006,0.1867,-0.5103,0.1047,0.1423
11421,-1.3360,-10.0006,0.1987,-0.5009,0.1026,0.1388
11428,-1.3551,-10.0413,0.2490,-0.4876,0.1066,0.1367
11437,-1.2689,-10.0341,0.2227,-0.4775,0.1026,0.1332
11445,-1.2905,-9.9479,0.1389,-0.4674,0.1026,0.1266
11453,-1.3144,-9.9934,0.1844,-0.4519,0.1045,0.1268
11461,-1.3336,-9.9886,0.2322,-0.4413,0.1037,0.1212
11468,-1.3623,-9.9958,0.3112,-0.4274,0.1026,0.1154
11476,-1.2881,-9.9168,0.2179,-0.4183,0.1042,0.1170
11485,-1.2953,-9.9383,0.3017,-0.4013,0.1047,0.1085
11493,-1.3264,-9.8593,0.2274,-0.3906,0.1010,0.1063
11501,-1.3431,-9.9311,0.2203,-0.3784,0.0991,0.1026
11508,-1.2929,-9.9216,0.1987,-0.3640,0.1002,0.0954
11516,-1.2689,-9.8497,0.2179,-0.3499,0.1005,0.0909
11525,-1.2905,-9.8090,0.2274,-0.3365,0.0941,0.0882
11533,-1.3072,-9.7995,0.1604,-0.3227,0.0933,0.0861
11541,-1.2594,-9.8665,0.2825,-0.3072,0.0901,0.0815
11549,-1.2713,-9.7947,0.3017,-0.2955,0.0906,0.0775
11556,-1.3719,-9.8114,0.2634,-0.2779,0.0877,0.0719
11565,-1.3072,-9.7205,0.1484,-0.2619,0.0855,0.0677
11573,-1.3048,-9.7540,0.1844,-0.2481,0.0831,0.0602
11581,-1.2546,-9.7779,0.2179,-0.2318,0.0786,0.0597
11589,-1.2785,-9.7540,0.2035,-0.2174,0.0743,0.0552
11596,-1.2594,-9.8186,0.2897,-0.2020,0.0719,0.0490
11604,-1.2761,-9.7181,0.2203,-0.1849,0.0666,0.0466
11613,-1.2809,-9.7109,0.1772,-0.1695,0.0653,0.0413
11621,-1.2905,-9.7683,0.2490,-0.1492,0.0608,0.0354
11629,-1.2641,-9.7348,0.2538,-0.1346,0.0544,0.0333
11637,-1.3001,-9.7205,0.1700,-0.1162,0.0480,0.0285
11644,-1.2785,-9.6798,0.2610,-0.0975,0.0448,0.0213
11653,-1.2139,-9.6367,0.2586,-0.0831,0.0437,0.0189
11661,-1.2546,-9.7229,0.3352,-0.0610,0.0384,0.0152
11669,-1.2977,-9.6941,0.2011,-0.0464,0.0306,0.0107
11677,-1.2929,-9.6774,0.1700,-0.0266,0.0272,0.0037
11684,-1.3168,-9.6702,0.2251,-0.0115,0.0160,0.0005
11693,-1.3551,-9.7181,0.2466,0.0096,0.0123,-0.0051
11701,-1.2905,-9.6845,0.2322,0.0290,0.0085,-0.0101
11709,-1.2474,-9.6798,0.1628,0.0456,0.0037,-0.0155
11717,-1.2210,-9.6199,0.2059,0.0608,-0.0080,-0.0165
11725,-1.2330,-9.7205,0.2394,0.0794,-0.0083,-0.0237
11732,-1.2929,-9.6343,0.1556,0.0973,-0.0192,-0.0274
11741,-1.2737,-9.6893,0.1772,0.1122,-0.0213,-0.0301
11749,-1.3264,-9.6917,0.2107,0.1322,-0.0293,-0.0365
11757,-1.2977,-9.7252,0.1676,0.1511,-0.0397,-0.0437
11765,-1.2833,-9.7324,0.2227,0.1660,-0.0426,-0.0477
11772,-1.2809,-9.7324,0.2322,0.1881,-0.0509,-0.0520
11781,-1.2402,-9.7157,0.2107,0.1998,-0.0568,-0.0544
11789,-1.2809,-9.7300,0.2562,0.2214,-0.0626,-0.0584
11797,-1.2617,-9.7588,0.2203,0.2305,-0.0725,-0.0616
11805,-1.2905,-9.7492,0.2203,0.2510,-0.0778,-0.0671
11813,-1.3384,-9.7971,0.2179,0.2681,-0.0815,-0.0682
11821,-1.2641,-9.7731,0.1820,0.2827,-0.0863,-0.0751
11829,-1.3024,-9.8114,0.2729,0.3022,-0.0981,-0.0767
11837,-1.3288,-9.7827,0.1341,0.3171,-0.1055,-0.0797
11845,-1.3431,-9.8186,0.0838,0.3331,-0.1114,-0.0858
11853,-1.2570,-9.8713,0.2035,0.3453,-0.1132,-0.0863
11860,-1.2881,-9.8737,0.2251,0.3627,-0.1231,-0.0893
11869,-1.3168,-9.8785,0.2562,0.3760,-0.1244,-0.0914
11877,-1.3312,-9.8928,0.1700,0.3874,-0.1327,-0.0957
11885,-1.3240,-9.8976,0.1006,0.4008,-0.1370,-0.0981
11893,-1.3336,-9.8665,0.2634,0.4135,-0.1423,-0.0994
11901,-1.2809,-9.9335,0.1413,0.4247,-0.1463,-0.1021
11909,-1.2641,-9.9766,0.1700,0.4346,-0.1514,-0.1005
11917,-1.3192,-9.9623,0.2394,0.4442,-0.1514,-0.1037
11925,-1.3288,-9.9192,0.2203,0.4541,-0.1535,-0.1087
11933,-1.3264,-9.9838,0.0718,0.4636,-0.1551,-0.1092
11941,-1.3216,-9.9862,0.2514,0.4746,-0.1593,-0.1114
11949,-1.3264,-10.0006,0.1508,0.4866,-0.1631,-0.1146
11957,-1.3408,-9.9982,0.1245,0.4927,-0.1617,-0.1156
11965,-1.3479,-10.0676,0.1580,0.5033,-0.1615,-0.1162
11973,-1.2785,-10.0509,0.1101,0.5116,-0.1655,-0.1199
11981,-1.3408,-10.0772,0.1484,0.5191,-0.1649,-0.1212
11988,-1.3527,-10.0987,0.1149,0.5247,-0.1615,-0.1228
11997,-1.3743,-10.1035,0.0742,0.5380,-0.1615,-0.1244
12005,-1.3551,-10.0796,0.1556,0.5407,-0.1631,-0.1260
12013,-1.3408,-10.1538,0.0982,0.5494,-0.1609,-0.1260
12021,-1.3886,-10.1490,0.1053,0.5574,-0.1631,-0.1295
12029,-1.3695,-10.0963,0.0766,0.5606,-0.1609,-0.1335
12037,-1.3599,-10.0820,0.1173,0.5697,-0.1601,-0.1370
12045,-1.3336,-10.1275,0.0287,0.5748,-0.1580,-0.1362
12053,-1.3431,-10.1730,0.1915,0.5793,-0.1575,-0.1380
12061,-1.3838,-10.1993,0.1580,0.5849,-0.1532,-0.1372
12069,-1.3910,-10.1610,0.1173,0.5907,-0.1527,-0.1412
12077,-1.3408,-10.1682,0.1030,0.5961,-0.1506,-0.1404
12085,-1.3719,-10.2400,0.1532,0.6001,-0.1495,-0.1407
12093,-1.3934,-10.2304,0.2011,0.6059,-0.1468,-0.1436
12101,-1.4006,-10.2376,0.1700,0.6102,-0.1492,-0.1420
12109,-1.3743,-10.2065,0.1293,0.6142,-0.1466,-0.1439
12118,-1.4198,-10.2568,0.1125,0.6166,-0.1442,-0.1474
12125,-1.3527,-10.2137,0.1413,0.6209,-0.1439,-0.1460
12133,-1.4317,-10.2137,0.1077,0.6235,-0.1399,-0.1482
12141,-1.3767,-10.2232,0.1317,0.6262,-0.1364,-0.1487
12149,-1.3695,-10.2137,0.0718,0.6281,-0.1399,-0.1471
12157,-1.3527,-10.1873,0.0910,0.6291,-0.1354,-0.1434
12165,-1.3934,-10.1945,0.0599,0.6307,-0.1394,-0.1452
12173,-1.3695,-10.2903,0.1053,0.6299,-0.1407,-0.1442
12181,-1.3743,-10.2137,0.0527,0.6307,-0.1380,-0.1444
12189,-1.4653,-10.1825,0.1413,0.6286,-0.1383,-0.1412
12197,-1.3910,-10.2256,0.1173,0.6294,-0.1364,-0.1410
12206,-1.3527,-10.1921,0.1077,0.6235,-0.1362,-0.1378
12213,-1.3719,-10.2328,0.0814,0.6219,-0.1362,-0.1359
12221,-1.3575,-10.1969,0.1389,0.6161,-0.1404,-0.1338
12229,-1.3886,-10.1658,0.0455,0.6121,-0.1364,-0.1322
12237,-1.3767,-10.2161,0.0934,0.6049,-0.1372,-0.1300
12246,-1.4150,-10.1227,0.0766,0.6043,-0.1362,-0.1282
12253,-1.3719,-10.1586,-0.0072,0.5950,-0.1370,-0.1255
12261,-1.3479,-10.1011,0.0622,0.5905,-0.1367,-0.1207
12269,-1.3384,-10.1801,0.0383,0.5817,-0.1346,-0.1186
12277,-1.4293,-10.1730,0.0694,0.5761,-0.1367,-0.1167
12285,-1.4676,-10.1203,0.0287,0.5657,-0.1372,-0.1132
12294,-1.3982,-10.1706,0.0599,0.5606,-0.1378,-0.1098
12301,-1.3934,-10.1442,0.0407,0.5500,-0.1324,-0.1047
12309,-1.3862,-10.0987,0.0646,0.5415,-0.1332,-0.1023
12317,-1.3767,-10.0341,0.0670,0.5329,-0.1367,-0.0997
12325,-1.3431,-10.0700,0.0838,0.5199,-0.1311,-0.0967
12334,-1.3671,-10.0341,0.0239,0.5108,-0.1303,-0.0906
12341,-1.3599,-10.0078,0.0048,0.5020,-0.1308,-0.0871
12349,-1.3551,-10.0365,0.0527,0.4900,-0.1306,-0.0858
12357,-1.3479,-10.0102,0.0192,0.4812,-0.1279,-0.0839
12365,-1.3599,-10.0126,0.0192,0.4740,-0.1252,-0.0826
12374,-1.3671,-9.9647,0.0934,0.4612,-0.1250,-0.0767
12382,-1.3264,-9.9742,0.0192,0.4530,-0.1223,-0.0738
12389,-1.2761,-9.9431,0.0790,0.4429,-0.1234,-0.0727
12397,-1.3431,-9.9599,0.0838,0.4351,-0.1226,-0.0690
12405,-1.3240,-9.9264,0.0862,0.4183,-0.1164,-0.0671
12413,-1.3096,-9.8976,0.0359,0.4133,-0.1156,-0.0613
12422,-1.2977,-9.8569,0.0335,0.3986,-0.1116,-0.0626
12429,-1.3479,-9.8689,-0.0024,0.3890,-0.1058,-0.0546
12437,-1.3024,-9.8593,0.0096,0.3789,-0.1055,-0.0538
12445,-1.3767,-9.8641,-0.0479,0.3669,-0.1007,-0.0506
12453,-1.2977,-9.8904,0.0766,0.3528,-0.1007,-0.0458
12462,-1.3336,-9.8306,-0.0766,0.3389,-0.0975,-0.0450
12470,-1.3886,-9.8330,-0.0168,0.3240,-0.0909,-0.0397
12477,-1.3934,-9.8138,-0.0287,0.3134,-0.0877,-0.0352
12485,-1.3384,-9.7420,0.0048,0.2998,-0.0853,-0.0274
12493,-1.2689,-9.8066,0.0575,0.2870,-0.0802,-0.0264
12502,-1.2570,-9.7947,0.1101,0.2705,-0.0778,-0.0234
12510,-1.3431,-9.7252,0.0790,0.2547,-0.0730,-0.0160
12517,-1.3886,-9.7612,-0.0120,0.2443,-0.0690,-0.0144
12525,-1.3599,-9.7420,0.0383,0.2278,-0.0640,-0.0080
12533,-1.3527,-9.6893,0.0096,0.2126,-0.0589,-0.0037
12541,-1.3671,-9.7468,0.0838,0.1977,-0.0541,0.0019
12550,-1.3503,-9.7276,-0.0096,0.1817,-0.0530,0.0085
12558,-1.2953,-9.6869,0.0575,0.1692,-0.0493,0.0131
12565,-1.3551,-9.6606,-0.0239,0.1487,-0.0434,0.0187
12573,-1.3168,-9.7181,0.1197,0.1338,-0.0392,0.0266
12581,-1.2953,-9.6798,0.0431,0.1140,-0.0370,0.0322
12590,-1.2713,-9.6582,0.0503,0.0989,-0.0328,0.0386
12598,-1.3455,-9.6941,-0.0359,0.0802,-0.0296,0.0442
12605,-1.3216,-9.5912,0.0263,0.0616,-0.0250,0.0506
12613,-1.2929,-9.7252,0.0718,0.0480,-0.0173,0.0570
12621,-1.3288,-9.6702,0.0311,0.0344,-0.0128,0.0634
12630,-1.3168,-9.6822,0.0120,0.0155,-0.0064,0.0655
12638,-1.3240,-9.6822,0.0407,0.0029,-0.0011,0.0711
12646,-1.2378,-9.6893,0.0407,-0.0152,0.0051,0.0757
12653,-1.3312,-9.6774,-0.0407,-0.0285,0.0120,0.0805
12661,-1.3408,-9.7085,-0.0048,-0.0450,0.0136,0.0863
12669,-1.3336,-9.7013,0.0120,-0.0605,0.0208,0.0893
12678,-1.3192,-9.6726,0.0048,-0.0791,0.0298,0.0935
12686,-1.3527,-9.7109,0.0622,-0.0930,0.0322,0.0989
12693,-1.3408,-9.6989,0.0527,-0.1069,0.0392,0.1005
12701,-1.3455,-9.6917,-0.0263,-0.1188,0.0469,0.1066
12709,-1.3384,-9.6941,0.0455,-0.1351,0.0522,0.1106
12718,-1.2977,-9.7085,-0.0096,-0.1495,0.0581,0.1135
12726,-1.2737,-9.6917,0.1077,-0.1623,0.0648,0.1151
12734,-1.3527,-9.7348,0.0048,-0.1748,0.0706,0.1172
12741,-1.3384,-9.8234,0.1077,-0.1940,0.0733,0.1210
12749,-1.3264,-9.7612,0.0646,-0.2057,0.0813,0.1252
12758,-1.2761,-9.7659,0.1197,-0.2220,0.0845,0.1260
12766,-1.3096,-9.7588,0.0096,-0.2369,0.0919,0.1287
12774,-1.3336,-9.8186,0.0599,-0.2553,0.0946,0.1314
12781,-1.2953,-9.7683,0.0646,-0.2691,0.0997,0.1338
12789,-1.3551,-9.8090,0.0646,-0.2851,0.1034,0.1394
12797,-1.3719,-9.8641,0.0575,-0.3040,0.1108,0.1444
12806,-1.2857,-9.8019,0.0383,-0.3158,0.1108,0.1476
12814,-1.2977,-9.7875,0.1341,-0.3344,0.1159,0.1479
12821,-1.3336,-9.8210,0.0287,-0.3485,0.1196,0.1537
12829,-1.3384,-9.8713,0.0455,-0.3613,0.1202,0.1585
12837,-1.3695,-9.8234,0.0551,-0.3794,0.1231,0.1609
12846,-1.3958,-9.9120,0.0886,-0.3877,0.1284,0.1641
12854,-1.3719,-9.9024,0.1245,-0.4018,0.1303,0.1663
12862,-1.3767,-9.8689,0.1125,-0.4104,0.1327,0.1695
12869,-1.4054,-9.9886,0.0862,-0.4210,0.1359,0.1708
12877,-1.3048,-9.9527,0.2346,-0.4343,0.1388,0.1743
12886,-1.3336,-9.9623,0.0335,-0.4394,0.1383,0.1799
12894,-1.3455,-9.9934,0.1939,-0.4485,0.1343,0.1791
12902,-1.3623,-9.9934,0.1269,-0.4567,0.1370,0.1793
12909,-1.2977,-9.9934,0.1676,-0.4663,0.1407,0.1855
12917,-1.3862,-10.0078,0.1604,-0.4732,0.1407,0.1868
12925,-1.4222,-10.0221,0.1867,-0.4810,0.1426,0.1879
12934,-1.4365,-10.0556,0.1508,-0.4858,0.1402,0.1892
12942,-1.3647,-10.0533,0.1748,-0.4919,0.1420,0.1924
12950,-1.4222,-10.0820,0.1939,-0.5017,0.1404,0.1929
12957,-1.3168,-10.0413,0.1101,-0.5068,0.1396,0.1948
12965,-1.3503,-10.1083,0.1796,-0.5113,0.1391,0.1972
12974,-1.3719,-10.1562,0.0766,-0.5172,0.1399,0.1969
12982,-1.3767,-10.0772,0.1748,-0.5260,0.1415,0.1948
12990,-1.3408,-10.1347,0.0670,-0.5313,0.1383,0.1998
12997,-1.2737,-10.0748,0.1891,-0.5385,0.1399,0.1977
13005,-1.3240,-10.1490,0.1341,-0.5399,0.1364,0.1985
13014,-1.4006,-10.1011,0.1221,-0.5441,0.1380,0.1951
13022,-1.4078,-10.1538,0.1820,-0.5505,0.1378,0.1937
13030,-1.3312,-10.1418,0.1365,-0.5566,0.1367,0.1937
13038,-1.3886,-10.1514,0.1844,-0.5577,0.1324,0.1900
13045,-1.3527,-10.1825,0.1173,-0.5617,0.1332,0.1900
13053,-1.3360,-10.2041,0.1700,-0.5689,0.1319,0.1895
13062,-1.3910,-10.1706,0.1724,-0.5737,0.1284,0.1905
13070,-1.3623,-10.1562,0.1844,-0.5756,0.1271,0.1895
13078,-1.3815,-10.1754,0.1580,-0.5790,0.1276,0.1897
13085,-1.3719,-10.1394,0.1820,-0.5830,0.1228,0.1849
13093,-1.3551,-10.1969,0.1772,-0.5868,0.1231,0.1865
13102,-1.3479,-10.1754,0.1604,-0.5905,0.1212,0.1833
13110,-1.3910,-10.1897,0.1317,-0.5897,0.1223,0.1833
13118,-1.3862,-10.1706,0.2370,-0.5969,0.1162,0.1831
13126,-1.3384,-10.1921,0.1173,-0.5985,0.1151,0.1809
13133,-1.4413,-10.1849,0.1365,-0.5971,0.1146,0.1817
13142,-1.3479,-10.1490,0.1604,-0.5995,0.1132,0.1788
13150,-1.3815,-10.1801,0.2059,-0.5995,0.1098,0.1783
13158,-1.3886,-10.2304,0.1724,-0.5966,0.1074,0.1783
13166,-1.3767,-10.1921,0.1987,-0.5982,0.1087,0.1713
13173,-1.3192,-10.1706,0.2634,-0.5966,0.1095,0.1737
13181,-1.3408,-10.1610,0.1724,-0.5937,0.1069,0.1748
13190,-1.3192,-10.1969,0.2274,-0.5878,0.1047,0.1711
13198,-1.3551,-10.1801,0.2705,-0.5836,0.1042,0.1721
13206,-1.3479,-10.1586,0.1508,-0.5780,0.1007,0.1713
13214,-1.3767,-10.1131,0.2203,-0.5732,0.1039,0.1665
13221,-1.3743,-10.1873,0.2322,-0.5668,0.0978,0.1676
13230,-1.3791,-10.1083,0.2203,-0.5582,0.1007,0.1652
13238,-1.3360,-10.1347,0.2155,-0.5534,0.0999,0.1636
13246,-1.3527,-10.1203,0.2011,-0.5431,0.0975,0.1628
13254,-1.3982,-10.0844,0.2227,-0.5321,0.0959,0.1612
13261,-1.2977,-10.0676,0.2897,-0.5255,0.0970,0.1609
13270,-1.3024,-10.0748,0.2179,-0.5143,0.0970,0.1548
13278,-1.3192,-10.0987,0.1939,-0.5079,0.0991,0.1508
13286,-1.3144,-10.0078,0.3017,-0.4946,0.0973,0.1498
13294,-1.3312,-10.0772,0.2562,-0.4847,0.0970,0.1458
13302,-1.3192,-9.9982,0.2035,-0.4716,0.0970,0.1442
13309,-1.2929,-9.9838,0.2035,-0.4628,0.0986,0.1388
13318,-1.3001,-9.9814,0.1772,-0.4527,0.0981,0.1362
13326,-1.2641,-9.9958,0.2298,-0.4442,0.0962,0.1284
13334,-1.3168,-9.9575,0.2825,-0.4258,0.0994,0.1271
13342,-1.3240,-10.0221,0.1652,-0.4178,0.0986,0.1215
13349,-1.2809,-10.0054,0.1939,-0.4077,0.1015,0.1175
13358,-1.3240,-9.9192,0.2514,-0.3946,0.0970,0.1140
13366,-1.3096,-9.9599,0.2011,-0.3840,0.0994,0.1031
13374,-1.2785,-9.9766,0.2059,-0.3757,0.0989,0.1031
13382,-1.2977,-9.8833,0.1700,-0.3597,0.0989,0.0978
13390,-1.3288,-9.9311,0.2107,-0.3525,0.0981,0.0933
13398,-1.3838,-9.9288,0.2466,-0.3392,0.0970,0.0869
13406,-1.2522,-9.8785,0.1987,-0.3296,0.0943,0.0815
13414,-1.3216,-9.8785,0.2322,-0.3168,0.0951,0.0770
13422,-1.2881,-9.9000,0.2274,-0.3030,0.0938,0.0746
13430,-1.2617,-9.8450,0.2322,-0.2912,0.0903,0.0650
13437,-1.3264,-9.7612,0.2011,-0.2798,0.0861,0.0642
13446,-1.2713,-9.8090,0.0862,-0.2657,0.0863,0.0568
13454,-1.3264,-9.7683,0.1820,-0.2539,0.0831,0.0549
13462,-1.2977,-9.7707,0.2298,-0.2427,0.0789,0.0533
13470,-1.2330,-9.7923,0.2083,-0.2289,0.0762,0.0482
13477,-1.2522,-9.7779,0.2801,-0.2142,0.0727,0.0450
13486,-1.2929,-9.7851,0.1748,-0.2004,0.0669,0.0402
13494,-1.3072,-9.6917,0.2729,-0.1868,0.0655,0.0365
13502,-1.2115,-9.7612,0.1556,-0.1737,0.0586,0.0346
13510,-1.2929,-9.7540,0.2705,-0.1556,0.0552,0.0293
13518,-1.2833,-9.7420,0.2777,-0.1439,0.0533,0.0266
13526,-1.2761,-9.7755,0.2203,-0.1252,0.0432,0.0229
13534,-1.3479,-9.7061,0.2035,-0.1092,0.0410,0.0187
13542,-1.2641,-9.6774,0.2370,-0.0911,0.0338,0.0155
13550,-1.2330,-9.7396,0.1580,-0.0754,0.0333,0.0123
13558,-1.2282,-9.7348,0.1915,-0.0594,0.0245,0.0128
13565,-1.1971,-9.7252,0.2179,-0.0424,0.0179,0.0056
13574,-1.2785,-9.7013,0.2083,-0.0226,0.0139,0.0056
13582,-1.2929,-9.7037,0.2466,-0.0037,0.0059,-0.0011
13590,-1.2713,-9.6534,0.2179,0.0117,-0.0005,-0.0045
13598,-1.2617,-9.7061,0.2969,0.0282,0.0016,-0.0072
13606,-1.2594,-9.7995,0.2203,0.0440,-0.0101,-0.0101
13614,-1.2713,-9.6917,0.1652,0.0642,-0.0160,-0.0165
13622,-1.3001,-9.6917,0.2227,0.0813,-0.0197,-0.0213
13630,-1.3360,-9.6917,0.1820,0.0991,-0.0240,-0.0266
13638,-1.2665,-9.7612,0.1820,0.1151,-0.0320,-0.0282
13646,-1.2546,-9.7252,0.2083,0.1316,-0.0330,-0.0349
13654,-1.2330,-9.6845,0.2825,0.1479,-0.0445,-0.0389
13662,-1.2570,-9.7396,0.2035,0.1607,-0.0456,-0.0458
13670,-1.2785,-9.7851,0.2394,0.1791,-0.0461,-0.0485
13678,-1.2617,-9.7324,0.1987,0.1935,-0.0581,-0.0530
13686,-1.2905,-9.8234,0.2227,0.2118,-0.0610,-0.0608
13694,-1.2546,-9.7827,0.2322,0.2233,-0.0618,-0.0645
13702,-1.2713,-9.7779,0.1724,0.2358,-0.0669,-0.0706
13710,-1.3120,-9.7899,0.1748,0.2467,-0.0765,-0.0722
13718,-1.2881,-9.7636,0.1891,0.2654,-0.0794,-0.0762
13726,-1.3240,-9.8593,0.1628,0.2798,-0.0858,-0.0789
13734,-1.2857,-9.8114,0.1221,0.2984,-0.0919,-0.0855
13742,-1.2977,-9.8234,0.2322,0.3088,-0.0935,-0.0877
13750,-1.3072,-9.8090,0.1772,0.3192,-0.0999,-0.0898
13758,-1.2857,-9.8737,0.1891,0.3309,-0.1031,-0.0895
13766,-1.3288,-9.8378,0.1748,0.3491,-0.1119,-0.0967
13774,-1.3168,-9.8952,0.1700,0.3547,-0.1180,-0.0959
13783,-1.3408,-9.8737,0.2131,0.3637,-0.1188,-0.0991
13790,-1.3192,-9.9024,0.1748,0.3805,-0.1247,-0.1018
13798,-1.3551,-9.9000,0.1915,0.3864,-0.1292,-0.1015
13806,-1.3001,-9.9527,0.1867,0.3976,-0.1319,-0.1058
13814,-1.3551,-9.9934,0.1580,0.4056,-0.1359,-0.1053
13822,-1.3168,-9.9599,0.2562,0.4133,-0.1394,-0.1053
13830,-1.3599,-9.9838,0.1748,0.4239,-0.1431,-0.1092
13838,-1.3958,-9.9862,0.1796,0.4354,-0.1418,-0.1085
13846,-1.3384,-10.0030,0.2035,0.4429,-0.1428,-0.1098
13854,-1.3120,-10.0173,0.1987,0.4519,-0.1482,-0.1116
13862,-1.3958,-10.0126,0.1365,0.4610,-0.1522,-0.1135
13871,-1.2833,-10.0197,0.1197,0.4690,-0.1519,-0.1132
13878,-1.3360,-10.0030,0.1532,0.4786,-0.1545,-0.1148
13886,-1.3671,-10.0006,0.0646,0.4850,-0.1548,-0.1140
13894,-1.4006,-10.0245,0.1269,0.4935,-0.1556,-0.1151
13902,-1.3575,-10.0197,0.1460,0.4970,-0.1567,-0.1162
13911,-1.3336,-10.0916,0.1987,0.5073,-0.1508,-0.1183
13918,-1.3168,-10.0556,0.1149,0.5135,-0.1564,-0.1178
13926,-1.3791,-10.0820,0.1676,0.5212,-0.1514,-0.1236
13934,-1.3671,-10.0868,0.1915,0.5236,-0.1500,-0.1223
13942,-1.3503,-10.0963,0.1221,0.5300,-0.1524,-0.1242
13950,-1.3743,-10.0485,0.1006,0.5359,-0.1498,-0.1258
13959,-1.3551,-10.1155,0.1365,0.5412,-0.1482,-0.1287
13966,-1.3072,-10.1203,0.0766,0.5436,-0.1439,-0.1282
13974,-1.3144,-10.1179,0.0646,0.5500,-0.1402,-0.1322
13982,-1.3671,-10.1634,0.1628,0.5545,-0.1436,-0.1319
13990,-1.3886,-10.1658,0.1676,0.5609,-0.1412,-0.1340
13999,-1.3384,-10.1370,0.0431,0.5670,-0.1354,-0.1362
14006,-1.3695,-10.1299,0.1293,0.5700,-0.1367,-0.1380
14014,-1.3527,-10.1849,0.0311,0.5710,-0.1314,-0.1362
14022,-1.3431,-10.1562,0.1484,0.5777,-0.1378,-0.1362
14030,-1.3815,-10.2041,0.1963,0.5790,-0.1335,-0.1388
14039,-1.3599,-10.0868,0.1676,0.5766,-0.1324,-0.1364
14047,-1.3958,-10.1394,0.0910,0.5804,-0.1290,-0.1370
14054,-1.3838,-10.2256,0.0934,0.5766,-0.1271,-0.1367
14062,-1.3767,-10.1586,0.1149,0.5798,-0.1271,-0.1380
14070,-1.3719,-10.1155,0.0311,0.5774,-0.1250,-0.1356
14078,-1.3862,-10.1682,0.1317,0.5788,-0.1258,-0.1343
14087,-1.3743,-10.1586,0.1125,0.5753,-0.1234,-0.1322
14094,-1.3647,-10.1490,0.1293,0.5684,-0.1250,-0.1322
14102,-1.4198,-10.2065,0.0575,0.5705,-0.1226,-0.1284
14110,-1.4174,-10.1370,0.0958,0.5612,-0.1231,-0.1268
14118,-1.3982,-10.1610,0.0958,0.5620,-0.1226,-0.1220
14127,-1.3958,-10.1418,0.1149,0.5534,-0.1242,-0.1215
14134,-1.4126,-10.1035,0.1844,0.5534,-0.1244,-0.1170
14142,-1.3982,-10.1059,0.0000,0.5505,-0.1234,-0.1156
14150,-1.3743,-10.1538,0.1532,0.5415,-0.1210,-0.1124
14158,-1.4174,-10.1227,0.1221,0.5353,-0.1236,-0.1063
14167,-1.4174,-10.1418,0.1149,0.5300,-0.1236,-0.1045
14175,-1.3791,-10.0820,0.0359,0.5263,-0.1244,-0.0997
14182,-1.3743,-10.1275,-0.0192,0.5236,-0.1244,-0.0946
14190,-1.3719,-10.1011,0.0359,0.5148,-0.1239,-0.0949
14198,-1.3791,-10.0700,0.1772,0.5057,-0.1204,-0.0922
14206,-1.3886,-10.0461,0.1173,0.5004,-0.1196,-0.0895
14215,-1.3767,-10.0126,0.0263,0.4924,-0.1231,-0.0834
14222,-1.3551,-9.9527,0.1628,0.4826,-0.1220,-0.0850
14230,-1.3479,-10.0365,0.0599,0.4756,-0.1191,-0.0794
14238,-1.3336,-9.9910,-0.0024,0.4682,-0.1172,-0.0749
14246,-1.3431,-10.0173,0.0742,0.4594,-0.1143,-0.0751
14255,-1.3886,-9.9623,0.0311,0.4474,-0.1138,-0.0722
14263,-1.3336,-9.9982,0.0670,0.4394,-0.1127,-0.0695
14270,-1.3599,-9.9383,-0.0527,0.4303,-0.1092,-0.0642
14278,-1.3815,-9.9623,0.0455,0.4226,-0.1098,-0.0634
14286,-1.3096,-9.9335,0.0479,0.4088,-0.1061,-0.0613
14295,-1.3455,-9.9288,0.0934,0.3984,-0.1039,-0.0562
14303,-1.3360,-9.8976,0.0383,0.3906,-0.1023,-0.0541
14310,-1.3264,-9.9168,0.0718,0.3800,-0.1015,-0.0528
14318,-1.3982,-9.9024,0.0335,0.3669,-0.0997,-0.0464
14326,-1.3791,-9.9072,0.0694,0.3568,-0.0946,-0.0440
14334,-1.3216,-9.8761,0.0862,0.3445,-0.0951,-0.0426
14343,-1.3455,-9.8809,0.0575,0.3352,-0.0893,-0.0389
14351,-1.3503,-9.8521,0.0646,0.3219,-0.0869,-0.0346
14358,-1.3743,-9.8426,0.1149,0.3094,-0.0850,-0.0344
14366,-1.3527,-9.7947,-0.0168,0.2947,-0.0807,-0.0274
14374,-1.3264,-9.8210,0.0407,0.2840,-0.0746,-0.0258
14383,-1.2881,-9.7995,0.0407,0.2699,-0.0727,-0.0200
14391,-1.3360,-9.7468,0.0694,0.2569,-0.0706,-0.0152
14398,-1.3910,-9.7731,0.0455,0.2406,-0.0695,-0.0120
14406,-1.3671,-9.7971,0.1101,0.2310,-0.0669,-0.0091
14414,-1.3384,-9.7037,0.0287,0.2180,-0.0629,-0.0059
14423,-1.3336,-9.7683,0.0431,0.2017,-0.0578,0.0035
14431,-1.3360,-9.7899,0.1053,0.1881,-0.0541,0.0083
14439,-1.3743,-9.6726,0.0599,0.1716,-0.0509,0.0139
14446,-1.3958,-9.7348,0.1317,0.1545,-0.0488,0.0200
14454,-1.4174,-9.6941,0.0431,0.1418,-0.0437,0.0229
14462,-1.3264,-9.6558,0.0455,0.1284,-0.0370,0.0304
14471,-1.3312,-9.6965,0.1030,0.1175,-0.0373,0.0373
14479,-1.3599,-9.7109,0.0072,0.0989,-0.0328,0.0421
14486,-1.2498,-9.7300,0.0575,0.0831,-0.0314,0.0482
14494,-1.3719,-9.7492,0.0910,0.0682,-0.0256,0.0552
14502,-1.2953,-9.6869,0.0503,0.0578,-0.0216,0.0597
14511,-1.3288,-9.6582,0.0239,0.0429,-0.0168,0.0645
14519,-1.3168,-9.7085,0.0144,0.0317,-0.0125,0.0677
14527,-1.3240,-9.6750,0.0359,0.0192,-0.0059,0.0725
14534,-1.3216,-9.7157,0.0551,0.0056,-0.0040,0.0759
14542,-1.3336,-9.7205,0.1604,-0.0080,0.0013,0.0775
14551,-1.3240,-9.6989,0.0742,-0.0187,0.0069,0.0823
14559,-1.3240,-9.6798,0.0144,-0.0341,0.0107,0.0855
14567,-1.3599,-9.7588,0.0239,-0.0498,0.0205,0.0927
14574,-1.3216,-9.7540,0.0910,-0.0661,0.0272,0.0959
14582,-1.3288,-9.6893,0.0838,-0.0810,0.0293,0.1013
14590,-1.3384,-9.7085,0.0383,-0.0925,0.0341,0.1002
14599,-1.3695,-9.7516,0.0215,-0.1074,0.0386,0.1074
14607,-1.3671,-9.7492,-0.0407,-0.1258,0.0432,0.1079
14615,-1.3384,-9.7157,0.1053,-0.1399,0.0504,0.1116
14622,-1.3431,-9.7324,0.0670,-0.1527,0.0568,0.1143
14630,-1.3096,-9.7803,0.0479,-0.1689,0.0605,0.1202
14639,-1.3168,-9.7659,0.0910,-0.1828,0.0674,0.1234
14647,-1.3455,-9.7755,0.0335,-0.1988,0.0690,0.1263
14655,-1.2522,-9.7492,0.0407,-0.2182,0.0762,0.1282
14662,-1.3024,-9.8186,-0.0192,-0.2316,0.0823,0.1319
14670,-1.3216,-9.8952,0.0910,-0.2457,0.0895,0.1308
14679,-1.3503,-9.8354,0.0455,-0.2619,0.0922,0.1372
14687,-1.3623,-9.7923,0.0742,-0.2742,0.0959,0.1394
14695,-1.3216,-9.8306,0.0383,-0.2942,0.1005,0.1431
14702,-1.3384,-9.8904,0.0455,-0.3027,0.1045,0.1426
14710,-1.3982,-9.8450,0.2035,-0.3190,0.1069,0.1516
14718,-1.3240,-9.8521,0.0622,-0.3323,0.1082,0.1527
14727,-1.3743,-9.8569,0.1245,-0.3445,0.1116,0.1551
14735,-1.3264,-9.9359,0.0718,-0.3552,0.1183,0.1572
14743,-1.3455,-9.8809,0.1245,-0.3640,0.1183,0.1591
14750,-1.3336,-9.9216,0.0694,-0.3712,0.1234,0.1639
14758,-1.2713,-9.8904,0.0814,-0.3829,0.1258,0.1639
14767,-1.3767,-9.9072,0.1173,-0.3914,0.1252,0.1641
14775,-1.3934,-9.9216,0.1053,-0.3997,0.1258,0.1703
14783,-1.3264,-9.9575,0.1149,-0.4040,0.1284,0.1713
14790,-1.3527,-9.9695,0.1891,-0.4125,0.1308,0.1753
14798,-1.3264,-9.9264,0.0766,-0.4223,0.1303,0.1737
14807,-1.3336,-9.9192,0.1006,-0.4210,0.1306,0.1767
14815,-1.3886,-10.0149,0.1053,-0.4271,0.1340,0.1780
14823,-1.3671,-9.9407,0.2035,-0.4343,0.1335,0.1775
14831,-1.3647,-9.9790,0.1293,-0.4413,0.1335,0.1812
14838,-1.3024,-10.0221,0.0838,-0.4426,0.1316,0.1844
14846,-1.3695,-10.0102,0.1101,-0.4503,0.1327,0.1831
14855,-1.3527,-10.0580,0.0407,-0.4522,0.1300,0.1844
14863,-1.3575,-10.0485,0.1987,-0.4594,0.1343,0.1865
14871,-1.3695,-10.0341,0.0862,-0.4655,0.1306,0.1865
14878,-1.2929,-10.0772,0.0766,-0.4708,0.1300,0.1881
14886,-1.3216,-10.0556,0.1293,-0.4780,0.1306,0.1871
14895,-1.3743,-10.0652,0.1149,-0.4855,0.1327,0.1852
14903,-1.3408,-10.1466,0.1341,-0.4903,0.1324,0.1868
14911,-1.3503,-10.0604,0.0958,-0.4988,0.1292,0.1823
14919,-1.3551,-10.1227,0.1580,-0.5068,0.1295,0.1857
14926,-1.3455,-10.1275,0.1820,-0.5151,0.1284,0.1857
14935,-1.2953,-10.1299,0.1293,-0.5185,0.1263,0.1847
14943,-1.3623,-10.1418,0.1173,-0.5276,0.1260,0.1809
14951,-1.3336,-10.1586,0.2035,-0.5316,0.1234,0.1799
14959,-1.3647,-10.1610,0.1125,-0.5353,0.1210,0.1791
14966,-1.2953,-10.1299,0.1891,-0.5444,0.1247,0.1807
14974,-1.2977,-10.0820,0.1844,-0.5489,0.1204,0.1804
14983,-1.3815,-10.1634,0.1484,-0.5500,0.1167,0.1791
14991,-1.3743,-10.1658,0.1197,-0.5550,0.1175,0.1775
14999,-1.3527,-10.1370,0.2179,-0.5590,0.1132,0.1740
15007,-1.3862,-10.1873,0.1173,-0.5580,0.1132,0.1756
15014,-1.4078,-10.1107,0.2466,-0.5590,0.1103,0.1727
15023,-1.3455,-10.1849,0.1484,-0.5604,0.1079,0.1692
15031,-1.3743,-10.1562,0.1772,-0.5585,0.1079,0.1735
15039,-1.3862,-10.1514,0.1915,-0.5588,0.1045,0.1687
15047,-1.4054,-10.1466,0.1891,-0.5548,0.1021,0.1660
15054,-1.3479,-10.1083,0.2179,-0.5521,0.1013,0.1663
15063,-1.3288,-10.1490,0.1556,-0.5470,0.0994,0.1633
15071,-1.3312,-10.0772,0.1293,-0.5452,0.0991,0.1655
15079,-1.3527,-10.1059,0.2490,-0.5385,0.0975,0.1612
15087,-1.3958,-10.1011,0.2394,-0.5305,0.0943,0.1604
15095,-1.3815,-10.0844,0.2059,-0.5273,0.0927,0.1596
15102,-1.3216,-10.1179,0.2227,-0.5209,0.0906,0.1572
15111,-1.3216,-10.1490,0.2418,-0.5137,0.0909,0.1553
15119,-1.3527,-10.0748,0.2083,-0.5063,0.0909,0.1537
15127,-1.2929,-10.0652,0.1772,-0.4978,0.0933,0.1519
15135,-1.3216,-9.9910,0.2346,-0.4908,0.0903,0.1503
15142,-1.3503,-10.0126,0.2251,-0.4823,0.0895,0.1516
15151,-1.3575,-10.0724,0.2658,-0.4724,0.0866,0.1447
15159,-1.3192,-10.0293,0.1077,-0.4666,0.0853,0.1434
15167,-1.3096,-10.0054,0.2466,-0.4583,0.0898,0.1412
15175,-1.2809,-10.0461,0.1604,-0.4506,0.0855,0.1407
15183,-1.3360,-10.0197,0.1604,-0.4418,0.0866,0.1362
15191,-1.3216,-10.0341,0.2227,-0.4325,0.0855,0.1338
15199,-1.3072,-9.9359,0.1628,-0.4239,0.0853,0.1271
15207,-1.3024,-9.9790,0.2562,-0.4162,0.0842,0.1268
15215,-1.2977,-9.9192,0.1437,-0.4098,0.0831,0.1228
15223,-1.2881,-9.9144,0.0814,-0.4016,0.0834,0.1191
15230,-1.2761,-9.9647,0.2035,-0.3949,0.0850,0.1138
15239,-1.2905,-9.9096,0.1748,-0.3872,0.0869,0.1127
15247,-1.3431,-9.9072,0.1580,-0.3778,0.0879,0.1053
15255,-1.2474,-9.9407,0.1820,-0.3717,0.0877,0.1013
15263,-1.2665,-9.8785,0.2921,-0.3632,0.0885,0.0970
15271,-1.2833,-9.8904,0.1676,-0.3544,0.0839,0.0898
15279,-1.3264,-9.9192,0.2370,-0.3437,0.0898,0.0831
15287,-1.2689,-9.8928,0.2322,-0.3365,0.0847,0.0807
15295,-1.3168,-9.8928,0.2155,-0.3235,0.0839,0.0773
15303,-1.3168,-9.8593,0.2945,-0.3131,0.0845,0.0714
15311,-1.3479,-9.8138,0.2490,-0.3019,0.0831,0.0661
15319,-1.3455,-9.8713,0.1915,-0.2902,0.0818,0.0624
15327,-1.2905,-9.8904,0.2873,-0.2766,0.0781,0.0605
15335,-1.2641,-9.8617,0.1915,-0.2622,0.0797,0.0528
15343,-1.3455,-9.7875,0.2011,-0.2494,0.0722,0.0496
15351,-1.3096,-9.8090,0.2298,-0.2334,0.0727,0.0464
15358,-1.2570,-9.8019,0.2753,-0.2177,0.0701,0.0429
15367,-1.2809,-9.7540,0.2227,-0.2041,0.0677,0.0392
15375,-1.2617,-9.7707,0.1724,-0.1905,0.0632,0.0373
15383,-1.2713,-9.8210,0.2298,-0.1743,0.0589,0.0344
15391,-1.3120,-9.7851,0.1891,-0.1607,0.0554,0.0285
15399,-1.2857,-9.7683,0.1867,-0.1444,0.0512,0.0261
15407,-1.2115,-9.7875,0.2825,-0.1276,0.0482,0.0205
15415,-1.2977,-9.7420,0.2059,-0.1138,0.0370,0.0229
15423,-1.3216,-9.7444,0.2682,-0.0962,0.0397,0.0184
15431,-1.2857,-9.7516,0.2251,-0.0818,0.0346,0.0149
15439,-1.2833,-9.7444,0.2155,-0.0629,0.0298,0.0136
15447,-1.2833,-9.7300,0.2035,-0.0517,0.0256,0.0096
15455,-1.3192,-9.7300,0.2634,-0.0349,0.0192,0.0080
15463,-1.2713,-9.7659,0.2179,-0.0195,0.0144,0.0024
15471,-1.2641,-9.7348,0.1867,-0.0053,0.0080,0.0011
15479,-1.3096,-9.7875,0.2394,0.0128,0.0008,-0.0053
15488,-1.2474,-9.7300,0.1963,0.0296,-0.0061,-0.0077
15495,-1.3216,-9.6941,0.3065,0.0392,-0.0080,-0.0075
15503,-1.3168,-9.7037,0.2274,0.0530,-0.0093,-0.0147
15511,-1.2522,-9.7420,0.1580,0.0717,-0.0147,-0.0195
15519,-1.2594,-9.7061,0.1676,0.0834,-0.0187,-0.0226
15527,-1.2306,-9.7157,0.1820,0.0975,-0.0234,-0.0282
15535,-1.2881,-9.7612,0.1580,0.1130,-0.0264,-0.0325
15543,-1.2905,-9.7348,0.2322,0.1226,-0.0325,-0.0405
15551,-1.2354,-9.7779,0.2610,0.1367,-0.0370,-0.0410
15559,-1.2043,-9.7348,0.1772,0.1484,-0.0408,-0.0482
15567,-1.2594,-9.7564,0.2849,0.1612,-0.0474,-0.0546
15576,-1.2186,-9.7444,0.2059,0.1697,-0.0498,-0.0589
15583,-1.2617,-9.7779,0.1508,0.1847,-0.0525,-0.0621
15591,-1.2665,-9.8306,0.1963,0.1993,-0.0613,-0.0693
15599,-1.2737,-9.7995,0.2322,0.2140,-0.0645,-0.0738
15607,-1.3312,-9.8162,0.2658,0.2262,-0.0677,-0.0791
15616,-1.2594,-9.7923,0.2610,0.2390,-0.0709,-0.0823
15623,-1.2881,-9.7899,0.2011,0.2534,-0.0778,-0.0853
15631,-1.3144,-9.8689,0.2179,0.2705,-0.0826,-0.0861
15639,-1.2833,-9.8737,0.2682,0.2817,-0.0885,-0.0903
15647,-1.3336,-9.8426,0.2155,0.2990,-0.0943,-0.0946
15655,-1.3288,-9.8450,0.2466,0.3088,-0.0970,-0.0965
15664,-1.3288,-9.8593,0.2035,0.3232,-0.1045,-0.0978
15671,-1.3048,-9.8713,0.1389,0.3347,-0.1095,-0.0997
15679,-1.3288,-9.8497,0.2011,0.3491,-0.1151,-0.0991
15687,-1.3168,-9.9096,0.1365,0.3565,-0.1234,-0.0997
15695,-1.3527,-9.8617,0.2083,0.3648,-0.1228,-0.0989
15704,-1.3551,-9.9024,0.0958,0.3765,-0.1255,-0.0967
15711,-1.3336,-9.9359,0.1221,0.3858,-0.1255,-0.0999
15719,-1.3551,-9.9455,0.1437,0.3960,-0.1335,-0.1031
15727,-1.3479,-9.9503,0.2298,0.4024,-0.1386,-0.0994
15735,-1.3312,-9.9527,0.1460,0.4096,-0.1404,-0.0991
15744,-1.3767,-9.9599,0.1149,0.4159,-0.1407,-0.0991
15752,-1.2953,-9.9120,0.1580,0.4213,-0.1420,-0.1023
15759,-1.3551,-10.0102,0.0599,0.4287,-0.1436,-0.0983
15767,-1.3767,-9.9934,0.2705,0.4381,-0.1447,-0.1013
15775,-1.3479,-10.0054,0.0958,0.4442,-0.1444,-0.1007
15783,-1.3384,-9.9934,0.1101,0.4511,-0.1431,-0.1026
15792,-1.3815,-10.0317,0.1939,0.4549,-0.1463,-0.1034
15799,-1.3312,-10.0652,0.1077,0.4580,-0.1442,-0.1061
15807,-1.4006,-10.0389,0.0838,0.4636,-0.1399,-0.1047
15815,-1.3360,-10.0389,0.1125,0.4676,-0.1402,-0.1058
15823,-1.3216,-10.0868,0.1413,0.4746,-0.1402,-0.1074
15832,-1.3408,-10.0844,0.1245,0.4812,-0.1386,-0.1111
15840,-1.3838,-10.1107,0.1820,0.4855,-0.1351,-0.1162
15847,-1.3360,-10.0820,0.1293,0.4868,-0.1335,-0.1162
15855,-1.3719,-10.0700,0.0910,0.4940,-0.1330,-0.1170
15863,-1.3384,-10.0437,0.0862,0.4964,-0.1287,-0.1223
15872,-1.2905,-10.1059,0.1006,0.4996,-0.1255,-0.1220
15880,-1.4341,-10.1299,0.1963,0.5033,-0.1236,-0.1263
15887,-1.3479,-10.1442,0.0766,0.5113,-0.1194,-0.1300
15895,-1.3096,-10.1107,0.1389,0.5153,-0.1167,-0.1306
15903,-1.3360,-10.1083,0.1221,0.5209,-0.1175,-0.1327
15911,-1.3384,-10.1418,0.1820,0.5223,-0.1162,-0.1340
15920,-1.3408,-10.1801,0.2107,0.5289,-0.1162,-0.1348
15927,-1.3336,-10.1155,0.1891,0.5305,-0.1116,-0.1346
15935,-1.3815,-10.1155,0.1293,0.5364,-0.1114,-0.1343
15943,-1.3096,-10.1323,0.2035,0.5404,-0.1130,-0.1306
15951,-1.3671,-10.1562,0.2251,0.5375,-0.1055,-0.1356
15960,-1.3862,-10.1251,0.1125,0.5407,-0.1119,-0.1319
15968,-1.3623,-10.1634,0.0742,0.5417,-0.1090,-0.1292
15975,-1.4413,-10.1347,0.1030,0.5412,-0.1130,-0.1271
15983,-1.3408,-10.0700,0.1030,0.5391,-0.1085,-0.1242
15991,-1.4126,-10.0963,0.1053,0.5369,-0.1108,-0.1231
16000,-1.3958,-10.0652,0.0599,0.5343,-0.1087,-0.1194
16008,-1.3982,-10.1203,0.0838,0.5308,-0.1098,-0.1124
16015,-1.4054,-10.0987,0.0718,0.5244,-0.1095,-0.1092
16023,-1.3982,-10.0963,0.0455,0.5188,-0.1127,-0.1050
16031,-1.4485,-10.1035,0.0934,0.5132,-0.1122,-0.1010
16039,-1.4174,-10.0844,0.0814,0.5071,-0.1146,-0.0981
16048,-1.4269,-10.0485,0.0670,0.5020,-0.1111,-0.0901
16056,-1.3862,-10.0533,0.1173,0.4954,-0.1170,-0.0858
16063,-1.4246,-10.0365,0.0215,0.4887,-0.1124,-0.0813
16071,-1.3623,-10.0149,0.0646,0.4810,-0.1135,-0.0794
16079,-1.3934,-10.1059,0.0503,0.4754,-0.1140,-0.0749
16088,-1.2857,-10.0221,0.1317,0.4636,-0.1092,-0.0741
16096,-1.3862,-10.0293,0.0215,0.4549,-0.1132,-0.0695
16103,-1.3958,-10.0269,0.0838,0.4498,-0.1111,-0.0666
16111,-1.3791,-10.0389,0.0646,0.4405,-0.1095,-0.0650
16119,-1.3671,-10.0030,-0.0048,0.4314,-0.1066,-0.0608
16128,-1.3120,-9.9838,0.0431,0.4205,-0.1085,-0.0621
16136,-1.3240,-9.9359,0.1269,0.4090,-0.1092,-0.0613
16144,-1.3910,-9.9647,0.0431,0.4000,-0.1058,-0.0576
16151,-1.3623,-9.8976,0.1221,0.3949,-0.1047,-0.0554
16159,-1.3288,-9.9766,0.0838,0.3904,-0.1053,-0.0552
16167,-1.3431,-9.9311,0.0670,0.3794,-0.1002,-0.0589
16176,-1.3431,-9.9072,0.1365,0.3728,-0.0975,-0.0552
16184,-1.3264,-9.9503,0.1149,0.3659,-0.0978,-0.0522
16191,-1.3336,-9.8426,0.0335,0.3565,-0.0935,-0.0549
16199,-1.3886,-9.8593,0.0934,0.3501,-0.0935,-0.0504
16207,-1.2905,-9.9359,0.0527,0.3424,-0.0893,-0.0466
16216,-1.2809,-9.8665,0.1173,0.3355,-0.0858,-0.0469
16224,-1.3551,-9.8521,0.1293,0.3262,-0.0823,-0.0437
16232,-1.3743,-9.9192,0.1221,0.3179,-0.0829,-0.0408
16239,-1.4198,-9.8593,0.1221,0.3086,-0.0805,-0.0381
16247,-1.3815,-9.8162,-0.0120,0.2958,-0.0775,-0.0384
16256,-1.3695,-9.7971,0.1125,0.2883,-0.0749,-0.0282
16264,-1.3192,-9.7659,0.0455,0.2777,-0.0714,-0.0261
16272,-1.2665,-9.8043,0.0958,0.2678,-0.0725,-0.0208
16279,-1.3264,-9.8186,-0.0120,0.2547,-0.0669,-0.0155
16287,-1.3599,-9.7516,0.0311,0.2406,-0.0640,-0.0101
16295,-1.3886,-9.8186,-0.0024,0.2252,-0.0658,-0.0037
16304,-1.3791,-9.7851,0.0575,0.2164,-0.0544,0.0029
16312,-1.2953,-9.7420,0.0742,0.2046,-0.0573,0.0088
16320,-1.3695,-9.7707,0.0575,0.1900,-0.0541,0.0163
16327,-1.3623,-9.7300,0.0670,0.1759,-0.0528,0.0229
16335,-1.3479,-9.7755,0.1413,0.1612,-0.0504,0.0312
16344,-1.3551,-9.7588,0.0646,0.1482,-0.0485,0.0346
16352,-1.2953,-9.7181,0.0958,0.1303,-0.0453,0.0397
16360,-1.2570,-9.7229,-0.0694,0.1164,-0.0389,0.0458
16367,-1.3264,-9.7133,0.0024,0.1018,-0.0373,0.0546
16375,-1.3862,-9.6965,0.0599,0.0850,-0.0312,0.0640
16384,-1.3862,-9.7109,0.1101,0.0695,-0.0285,0.0693
16392,-1.3360,-9.7372,0.0646,0.0578,-0.0245,0.0746
16400,-1.3168,-9.7492,-0.0120,0.0429,-0.0147,0.0770
16408,-1.3384,-9.7372,-0.0239,0.0261,-0.0109,0.0842
16415,-1.3503,-9.7444,0.0862,0.0136,-0.0061,0.0842
16423,-1.3312,-9.7300,0.0096,-0.0043,-0.0003,0.0839
16432,-1.2905,-9.7540,-0.0263,-0.0141,0.0056,0.0885
16440,-1.3479,-9.7085,0.0670,-0.0288,0.0144,0.0879
16448,-1.2953,-9.7252,0.0766,-0.0394,0.0157,0.0901
16455,-1.2785,-9.7252,0.0982,-0.0517,0.0248,0.0895
16463,-1.3551,-9.7444,0.1460,-0.0650,0.0322,0.0922
16472,-1.3408,-9.6798,0.0287,-0.0733,0.0370,0.0930
16480,-1.3024,-9.7157,0.0407,-0.0898,0.0445,0.0930
16488,-1.3216,-9.7540,0.0287,-0.0973,0.0490,0.0957
16496,-1.3312,-9.7564,0.0503,-0.1069,0.0562,0.0975
16503,-1.3743,-9.7612,0.0790,-0.1186,0.0613,0.0983
16512,-1.3384,-9.7492,0.0670,-0.1316,0.0655,0.1018
16520,-1.3288,-9.7252,0.0383,-0.1420,0.0685,0.1047
16528,-1.3527,-9.7731,0.0575,-0.1543,0.0757,0.1085
16536,-1.2665,-9.7181,0.0790,-0.1700,0.0773,0.1063
16543,-1.3767,-9.7324,0.0192,-0.1785,0.0778,0.1082
16551,-1.3216,-9.7875,0.0814,-0.1924,0.0826,0.1172
16560,-1.3072,-9.7995,0.0359,-0.2044,0.0807,0.1194
16568,-1.4078,-9.8402,0.0718,-0.2180,0.0885,0.1236
16576,-1.3024,-9.7923,0.0239,-0.2340,0.0901,0.1271
16583,-1.3216,-9.8043,0.1006,-0.2473,0.0914,0.1340
16591,-1.3503,-9.8617,0.1006,-0.2654,0.0938,0.1391
16600,-1.3575,-9.8378,0.0766,-0.2793,0.0922,0.1439
16608,-1.3384,-9.8569,0.1293,-0.2902,0.0941,0.1463
16616,-1.3647,-9.8665,0.1077,-0.3035,0.0991,0.1529
16624,-1.3719,-9.8521,0.0599,-0.3206,0.1018,0.1567
16631,-1.2713,-9.8928,0.0646,-0.3285,0.1029,0.1599
16640,-1.3886,-9.9431,0.1125,-0.3405,0.1029,0.1649
16648,-1.3240,-9.9096,0.0718,-0.3531,0.1031,0.1679
16656,-1.3695,-9.8857,0.0646,-0.3595,0.1031,0.1711
16664,-1.4030,-9.9048,0.0862,-0.3722,0.1061,0.1769
16671,-1.3431,-9.9192,0.0982,-0.3784,0.1031,0.1809
16679,-1.3024,-9.9359,0.1149,-0.3850,0.1026,0.1791
16688,-1.3336,-9.9718,0.0982,-0.3928,0.1063,0.1809
16696,-1.3384,-9.9359,0.1293,-0.4005,0.1039,0.1799
16704,-1.3958,-9.9335,0.0814,-0.4045,0.1063,0.1831
16712,-1.3096,-10.0078,0.0622,-0.4077,0.1074,0.1809
16719,-1.3288,-10.0030,0.1221,-0.4133,0.1103,0.1852
16728,-1.2857,-9.9958,0.0622,-0.4226,0.1106,0.1817
16736,-1.3527,-10.0580,0.0958,-0.4271,0.1114,0.1796
16744,-1.4198,-10.0604,0.0862,-0.4314,0.1170,0.1804
16752,-1.3527,-10.0078,0.1197,-0.4341,0.1164,0.1777
16759,-1.3503,-10.1083,0.2059,-0.4413,0.1162,0.1759
16768,-1.3144,-10.0317,0.1604,-0.4445,0.1180,0.1751
16776,-1.3264,-10.0197,0.1365,-0.4474,0.1159,0.1695
16784,-1.3575,-10.0245,0.1508,-0.4493,0.1183,0.1700
16792,-1.3599,-10.1083,0.1149,-0.4557,0.1172,0.1668
16800,-1.2929,-10.0892,0.1269,-0.4535,0.1191,0.1671
16807,-1.3575,-10.0269,0.1844,-0.4567,0.1178,0.1617
16816,-1.3048,-10.0437,0.1437,-0.4596,0.1175,0.1612
16824,-1.3479,-10.0748,0.1891,-0.4684,0.1196,0.1644
16832,-1.3886,-10.0940,0.1532,-0.4698,0.1175,0.1580
16840,-1.3982,-10.1490,0.0982,-0.4722,0.1164,0.1567
16847,-1.3360,-10.0700,0.1676,-0.4754,0.1186,0.1572
16856,-1.3791,-10.0987,0.1676,-0.4799,0.1148,0.1575
16864,-1.3958,-10.0987,0.1652,-0.4839,0.1138,0.1575
16872,-1.4126,-10.0580,0.1221,-0.4892,0.1100,0.1567
16880,-1.4317,-10.1083,0.1556,-0.4935,0.1079,0.1588
16888,-1.3886,-10.1083,0.1341,-0.4954,0.1085,0.1601
16896,-1.3527,-10.0748,0.2298,-0.4999,0.1061,0.1601
16904,-1.3240,-10.1131,0.1820,-0.5036,0.1050,0.1631
16912,-1.3767,-10.1011,0.1006,-0.5087,0.1021,0.1620
16920,-1.3503,-10.0892,0.1508,-0.5121,0.1026,0.1633
16928,-1.3623,-10.0676,0.2203,-0.5108,0.0965,0.1639
16935,-1.3575,-10.0820,0.2131,-0.5108,0.0922,0.1660
16944,-1.3024,-10.0820,0.2083,-0.5063,0.0906,0.1671
16952,-1.3168,-10.0652,0.2203,-0.5113,0.0898,0.1668
16960,-1.3958,-10.1323,0.2251,-0.5052,0.0861,0.1684
16968,-1.3719,-10.1011,0.1700,-0.5033,0.0845,0.1684
16976,-1.3575,-10.1131,0.1149,-0.5002,0.0850,0.1647
16984,-1.3599,-10.1011,0.1676,-0.4932,0.0858,0.1647
16992,-1.3312,-10.1059,0.1844,-0.4898,0.0813,0.1617
17000,-1.2977,-10.0509,0.1317,-0.4842,0.0783,0.1612
17008,-1.2594,-10.0987,0.2682,-0.4791,0.0807,0.1604
17016,-1.3527,-10.0844,0.1939,-0.4732,0.0805,0.1583
17024,-1.3671,-10.0748,0.1700,-0.4695,0.0810,0.1551
17032,-1.3120,-10.0844,0.2251,-0.4588,0.0810,0.1516
17040,-1.3384,-10.0748,0.2251,-0.4543,0.0847,0.1484
17048,-1.3288,-10.0556,0.2155,-0.4461,0.0799,0.1412
17056,-1.3096,-10.0604,0.2418,-0.4370,0.0813,0.1346
17064,-1.2833,-10.0126,0.2753,-0.4287,0.0839,0.1284
17072,-1.2809,-10.0102,0.2322,-0.4194,0.0861,0.1231
17080,-1.2761,-10.0341,0.2274,-0.4058,0.0845,0.1196
17088,-1.2641,-9.9695,0.2131,-0.3962,0.0874,0.1116
17096,-1.3168,-10.0078,0.2610,-0.3888,0.0903,0.1087
17104,-1.3024,-9.9288,0.2227,-0.3773,0.0866,0.1034
17112,-1.3144,-9.9551,0.1891,-0.3677,0.0909,0.0973
17120,-1.3024,-9.9192,0.1915,-0.3555,0.0930,0.0917
17128,-1.2450,-9.9288,0.1437,-0.3480,0.0909,0.0861
17136,-1.3096,-9.9383,0.2011,-0.3373,0.0909,0.0837
17144,-1.3048,-9.9072,0.1221,-0.3285,0.0917,0.0767
17153,-1.3575,-9.9742,0.2083,-0.3195,0.0885,0.0757
17160,-1.3695,-9.8928,0.1700,-0.3091,0.0911,0.0727
17168,-1.2761,-9.8809,0.2322,-0.2992,0.0882,0.0663
17176,-1.2953,-9.8593,0.2155,-0.2944,0.0847,0.0650
17184,-1.2402,-9.8833,0.2490,-0.2827,0.0853,0.0629
17192,-1.3192,-9.8617,0.1484,-0.2774,0.0829,0.0624
17200,-1.3072,-9.8114,0.2945,-0.2681,0.0754,0.0538
17208,-1.3288,-9.8617,0.1820,-0.2577,0.0762,0.0562
17216,-1.2929,-9.8665,0.2442,-0.2534,0.0703,0.0501
17224,-1.3384,-9.7947,0.1987,-0.2419,0.0698,0.0501
17232,-1.3408,-9.8138,0.2442,-0.2321,0.0701,0.0498
17240,-1.3360,-9.8617,0.2562,-0.2217,0.0645,0.0493
17248,-1.3144,-9.8497,0.2346,-0.2116,0.0602,0.0493
17256,-1.3408,-9.7683,0.2035,-0.1998,0.0546,0.0469
17264,-1.2905,-9.8019,0.1939,-0.1913,0.0493,0.0418
17272,-1.2474,-9.8426,0.1867,-0.1775,0.0424,0.0389
17281,-1.3240,-9.7659,0.1772,-0.1649,0.0448,0.0365
17288,-1.3551,-9.7803,0.1844,-0.1500,0.0373,0.0368
17296,-1.3336,-9.7516,0.2394,-0.1364,0.0362,0.0346
17304,-1.2689,-9.7947,0.1820,-0.1244,0.0274,0.0285
17312,-1.2929,-9.7923,0.2562,-0.1100,0.0221,0.0285
17320,-1.2833,-9.7755,0.1604,-0.0919,0.0181,0.0200
17328,-1.2570,-9.7707,0.1532,-0.0797,0.0139,0.0184
17336,-1.2761,-9.7348,0.2203,-0.0621,0.0104,0.0144
17344,-1.2330,-9.7971,0.2418,-0.0493,0.0077,0.0067
17352,-1.2737,-9.7420,0.2394,-0.0354,0.0043,0.0053
17360,-1.2809,-9.7133,0.1891,-0.0157,0.0021,-0.0024
17369,-1.2977,-9.7492,0.2586,-0.0019,-0.0011,-0.0067
17376,-1.2929,-9.7252,0.2466,0.0112,-0.0083,-0.0080
17384,-1.2881,-9.7181,0.2705,0.0261,-0.0115,-0.0139
17392,-1.2881,-9.7205,0.1748,0.0426,-0.0155,-0.0248
17400,-1.2594,-9.7205,0.2825,0.0546,-0.0125,-0.0277
17409,-1.2953,-9.7372,0.1963,0.0682,-0.0187,-0.0338
17416,-1.2354,-9.7636,0.1867,0.0839,-0.0237,-0.0394
17424,-1.3216,-9.7827,0.1724,0.0997,-0.0245,-0.0448
17432,-1.2977,-9.7851,0.2514,0.1127,-0.0341,-0.0498
17440,-1.2689,-9.7803,0.2107,0.1247,-0.0341,-0.0554
17448,-1.3024,-9.8019,0.2083,0.1396,-0.0413,-0.0549
17457,-1.3072,-9.7300,0.1772,0.1567,-0.0424,-0.0605
17464,-1.2522,-9.8162,0.1149,0.1676,-0.0461,-0.0632
17472,-1.2641,-9.7300,0.1221,0.1791,-0.0530,-0.0693
17480,-1.2905,-9.8426,0.2298,0.1900,-0.0581,-0.0725
17488,-1.3192,-9.8043,0.3112,0.2028,-0.0613,-0.0751
17497,-1.3001,-9.7851,0.1365,0.2102,-0.0645,-0.0762
17504,-1.2953,-9.8090,0.1844,0.2278,-0.0701,-0.0778
17512,-1.3216,-9.7731,0.1221,0.2329,-0.0743,-0.0797
17520,-1.3120,-9.8258,0.2059,0.2454,-0.0781,-0.0837
17528,-1.3168,-9.8617,0.1652,0.2571,-0.0797,-0.0813
17537,-1.3168,-9.7947,0.1820,0.2654,-0.0890,-0.0831
17545,-1.3551,-9.7947,0.2011,0.2750,-0.0893,-0.0839
17552,-1.3264,-9.8785,0.2131,0.2835,-0.0957,-0.0834
17560,-1.3144,-9.8689,0.1724,0.2931,-0.0949,-0.0818
17568,-1.3192,-9.8186,0.1891,0.3019,-0.1029,-0.0861
17576,-1.3384,-9.9120,0.1508,0.3118,-0.1058,-0.0866
17585,-1.2953,-9.8426,0.1987,0.3227,-0.1071,-0.0853
17592,-1.3503,-9.9216,0.1891,0.3301,-0.1143,-0.0842
17600,-1.3312,-9.8689,0.2059,0.3403,-0.1196,-0.0863
17608,-1.3719,-9.9120,0.0910,0.3507,-0.1212,-0.0893
17616,-1.3599,-9.9335,0.2370,0.3616,-0.1204,-0.0887
17625,-1.3096,-9.9479,0.2179,0.3648,-0.1226,-0.0869
17633,-1.3096,-9.9407,0.2035,0.3728,-0.1284,-0.0893
17640,-1.2857,-9.9575,0.0718,0.3829,-0.1295,-0.0946
17648,-1.3024,-9.9599,0.1532,0.3914,-0.1282,-0.0927
17656,-1.3551,-9.9838,0.1915,0.3992,-0.1268,-0.0951
17665,-1.3168,-9.9551,0.1365,0.4061,-0.1306,-0.0989
17673,-1.3551,-10.0389,0.1987,0.4125,-0.1279,-0.1005
17680,-1.3024,-9.9838,0.1245,0.4199,-0.1223,-0.0997
17688,-1.3479,-9.9575,0.1772,0.4279,-0.1308,-0.1045
17696,-1.3336,-10.0293,0.1197,0.4346,-0.1276,-0.1074
17704,-1.3288,-10.0533,0.0934,0.4381,-0.1242,-0.1087
17713,-1.3695,-10.0197,0.0838,0.4461,-0.1207,-0.1106
17721,-1.3192,-10.0580,0.1532,0.4490,-0.1207,-0.1135
17728,-1.3527,-9.9599,0.1006,0.4543,-0.1196,-0.1140
17736,-1.3072,-10.0652,0.0910,0.4586,-0.1164,-0.1154
17744,-1.3647,-10.0221,0.1700,0.4647,-0.1124,-0.1194
17753,-1.3001,-10.0317,0.2610,0.4679,-0.1130,-0.1226
17761,-1.3671,-10.0748,0.1006,0.4708,-0.1111,-0.1218
17768,-1.3623,-10.0078,0.1676,0.4732,-0.1082,-0.1231
17776,-1.3575,-10.0700,0.1006,0.4751,-0.1090,-0.1199
17784,-1.3144,-10.0317,0.1365,0.4775,-0.1069,-0.1204
17793,-1.3982,-10.0700,0.1580,0.4802,-0.1069,-0.1228
17801,-1.3982,-10.0461,0.1460,0.4802,-0.1071,-0.1223
17809,-1.3719,-10.0078,0.1484,0.4855,-0.1069,-0.1218
17816,-1.3862,-10.0987,0.1341,0.4874,-0.1026,-0.1226
17824,-1.3431,-10.0509,0.0910,0.4858,-0.1050,-0.1191
17832,-1.3791,-10.0916,0.1245,0.4895,-0.1053,-0.1175
17841,-1.3934,-10.0580,0.1149,0.4879,-0.1053,-0.1140
17849,-1.3575,-10.0580,0.1341,0.4900,-0.1058,-0.1119
17856,-1.3982,-10.0509,0.0886,0.4884,-0.1042,-0.1103
17864,-1.4078,-10.0437,0.1413,0.4860,-0.1100,-0.1063
17872,-1.3862,-10.0269,0.0910,0.4836,-0.1042,-0.1037
17881,-1.3551,-10.1131,0.1484,0.4828,-0.1061,-0.1010
17889,-1.4341,-10.0317,0.0958,0.4778,-0.1058,-0.0967
17896,-1.4246,-10.0509,0.0718,0.4770,-0.1063,-0.0943
17904,-1.3958,-10.0269,0.1365,0.4740,-0.1071,-0.0917
17912,-1.4006,-10.0700,0.1053,0.4679,-0.1069,-0.0877
17921,-1.3815,-9.9910,0.0718,0.4671,-0.1108,-0.0866
17929,-1.4078,-10.0269,0.0551,0.4623,-0.1087,-0.0845
17937,-1.3623,-10.0269,0.0455,0.4594,-0.1111,-0.0810
17944,-1.4150,-10.0652,0.0383,0.4549,-0.1082,-0.0794
17952,-1.3503,-9.9958,0.0982,0.4485,-0.1079,-0.0765
17960,-1.3551,-10.0269,0.1053,0.4474,-0.1143,-0.0741
17969,-1.3384,-10.0006,0.1006,0.4402,-0.1103,-0.0698
17977,-1.3791,-10.0030,0.0742,0.4351,-0.1087,-0.0717
17984,-1.3431,-10.0389,0.1389,0.4290,-0.1066,-0.0669
17992,-1.3408,-9.9623,0.1221,0.4247,-0.1045,-0.0642
18000,-1.3743,-9.9647,0.1556,0.4186,-0.1061,-0.0645
18009,-1.3791,-9.9168,0.0766,0.4128,-0.1074,-0.0653
18017,-1.3312,-9.9982,0.1867,0.4032,-0.1010,-0.0610
18025,-1.3743,-9.9623,0.0527,0.3976,-0.1031,-0.0605
18032,-1.3551,-9.9790,0.1197,0.3938,-0.1002,-0.0554
18040,-1.3862,-9.9216,0.0742,0.3850,-0.0951,-0.0530
18049,-1.3384,-9.9120,0.1053,0.3760,-0.0959,-0.0546
18057,-1.3264,-9.9623,0.0982,0.3624,-0.0925,-0.0504
18065,-1.3958,-9.8474,0.0599,0.3547,-0.0901,-0.0512
18072,-1.3599,-9.9120,0.0575,0.3467,-0.0879,-0.0472
18080,-1.3838,-9.8904,-0.0215,0.3376,-0.0877,-0.0442
18088,-1.3503,-9.8952,0.2059,0.3267,-0.0834,-0.0392
18097,-1.3647,-9.8641,0.1317,0.3176,-0.0823,-0.0373
18105,-1.3743,-9.8928,0.0718,0.3102,-0.0781,-0.0360
18113,-1.3910,-9.8521,0.1748,0.2982,-0.0765,-0.0290
18120,-1.3695,-9.8234,0.1030,0.2872,-0.0746,-0.0250
18128,-1.3934,-9.8330,0.1365,0.2835,-0.0706,-0.0245
18137,-1.3503,-9.8258,0.0670,0.2694,-0.0658,-0.0218
18145,-1.3647,-9.8521,0.1125,0.2585,-0.0658,-0.0179
18153,-1.2953,-9.7875,0.0024,0.2481,-0.0671,-0.0104
18160,-1.3503,-9.8186,0.1053,0.2393,-0.0632,-0.0067
18168,-1.4365,-9.8043,0.0503,0.2318,-0.0594,-0.0035
18177,-1.3288,-9.8114,0.0024,0.2214,-0.0592,0.0029
18185,-1.2953,-9.7971,0.0790,0.2057,-0.0554,0.0083
18193,-1.3144,-9.7827,-0.0311,0.1961,-0.0533,0.0117
18201,-1.3479,-9.7588,0.0790,0.1876,-0.0480,0.0195
18208,-1.3408,-9.7636,0.0168,0.1719,-0.0448,0.0216
18216,-1.3503,-9.7731,0.0790,0.1593,-0.0413,0.0298
18225,-1.4078,-9.7300,0.0120,0.1479,-0.0394,0.0322
18233,-1.3551,-9.8186,0.0239,0.1372,-0.0352,0.0384
18241,-1.3408,-9.8019,0.0575,0.1204,-0.0325,0.0432
18248,-1.3312,-9.7276,0.1365,0.1111,-0.0282,0.0477
18256,-1.3599,-9.7540,0.1820,0.1010,-0.0269,0.0509
18265,-1.3503,-9.7372,0.0527,0.0898,-0.0226,0.0557
18273,-1.3671,-9.6869,0.1293,0.0757,-0.0187,0.0594
18281,-1.3479,-9.8258,0.1125,0.0626,-0.0152,0.0663
18289,-1.2426,-9.7564,0.0383,0.0485,-0.0101,0.0679
18296,-1.3384,-9.7133,0.0503,0.0381,-0.0045,0.0725
18305,-1.3336,-9.7396,0.0503,0.0264,0.0005,0.0749
18313,-1.3264,-9.7659,0.0982,0.0104,0.0008,0.0791
18321,-1.3144,-9.7205,0.0814,0.0019,0.0075,0.0773
18329,-1.3312,-9.7588,0.0910,-0.0099,0.0115,0.0837
18336,-1.2833,-9.7636,0.0838,-0.0224,0.0163,0.0866
18344,-1.2809,-9.7300,0.0670,-0.0349,0.0200,0.0882
18353,-1.2953,-9.7420,0.1125,-0.0493,0.0205,0.0914
18361,-1.3503,-9.7588,0.0934,-0.0600,0.0269,0.0954
18369,-1.3599,-9.7707,-0.0335,-0.0709,0.0341,0.0943
18377,-1.3168,-9.7612,0.0742,-0.0858,0.0386,0.0975
18384,-1.3072,-9.7707,0.1341,-0.0983,0.0394,0.1026
18393,-1.3934,-9.7372,0.0527,-0.1095,0.0464,0.1018
18401,-1.3575,-9.7683,0.0958,-0.1226,0.0485,0.1058
18409,-1.3336,-9.7444,0.0383,-0.1348,0.0520,0.1100
18417,-1.2881,-9.7300,0.1341,-0.1444,0.0530,0.1119
18424,-1.3551,-9.7851,0.1508,-0.1575,0.0578,0.1151
18433,-1.3623,-9.7707,0.0622,-0.1743,0.0645,0.1202
18441,-1.3408,-9.8426,0.0982,-0.1841,0.0637,0.1242
18449,-1.3096,-9.7947,0.0479,-0.1958,0.0658,0.1263
18457,-1.3431,-9.8114,0.0599,-0.2100,0.0695,0.1290
18465,-1.3192,-9.7851,0.0814,-0.2209,0.0751,0.1308
18472,-1.3192,-9.7971,0.0311,-0.2324,0.0751,0.1354
18481,-1.3144,-9.8138,0.1604,-0.2449,0.0789,0.1367
18489,-1.3886,-9.8617,0.1101,-0.2539,0.0815,0.1410
18497,-1.3719,-9.7971,0.0790,-0.2678,0.0794,0.1428
18505,-1.3455,-9.8378,0.0910,-0.2769,0.0887,0.1426
18512,-1.2977,-9.9335,0.0646,-0.2862,0.0877,0.1514
18521,-1.3096,-9.8857,0.1221,-0.2984,0.0863,0.1524
18529,-1.3216,-9.8474,0.0718,-0.3059,0.0890,0.1537
18537,-1.3982,-9.8689,0.0766,-0.3174,0.0922,0.1580
18545,-1.3527,-9.9024,0.1389,-0.3235,0.0954,0.1585
18552,-1.3791,-9.8881,0.1437,-0.3312,0.0975,0.1599
18561,-1.3120,-9.9479,0.0982,-0.3376,0.0973,0.1625
18569,-1.3144,-9.9335,0.1365,-0.3475,0.1007,0.1641
18577,-1.3288,-9.9431,0.1580,-0.3536,0.0989,0.1665
18585,-1.3623,-9.9288,0.1772,-0.3611,0.1034,0.1663
18593,-1.3910,-9.9599,0.1413,-0.3645,0.1082,0.1655
18600,-1.3862,-9.9359,0.0072,-0.3728,0.1050,0.1652
18609,-1.3623,-9.9000,0.1580,-0.3797,0.1090,0.1673
18617,-1.3815,-9.9551,0.2131,-0.3821,0.1071,0.1647
18625,-1.3336,-10.0126,0.2011,-0.3872,0.1095,0.1681
18633,-1.3719,-10.0389,0.1628,-0.3917,0.1069,0.1689
18640,-1.3599,-10.0102,0.1293,-0.3936,0.1111,0.1665
18649,-1.3503,-10.0006,0.1413,-0.3978,0.1127,0.1668
18657,-1.3240,-10.0485,0.1173,-0.4042,0.1122,0.1665
18665,-1.3934,-9.9958,0.2083,-0.4042,0.1132,0.1641
18673,-1.3934,-10.0293,0.1365,-0.4122,0.1108,0.1623
18681,-1.2833,-10.0341,0.1700,-0.4157,0.1140,0.1657
18689,-1.3144,-10.0030,0.1077,-0.4205,0.1127,0.1631
18697,-1.3144,-10.0365,0.1437,-0.4271,0.1122,0.1599
18705,-1.3479,-10.0820,0.1556,-0.4287,0.1148,0.1652
18713,-1.3719,-10.0317,0.1556,-0.4309,0.1154,0.1609
